"success","timeout","failed_images","failed_audio","failed_video","trial_type","trial_index","plugin_version","time_elapsed","rt","stimulus","response","task","correct_response","correct"
"true","false","[]","[]","[]","preload","0","2.0.0","24","","","","","",""
"","","","","","html-keyboard-response","1","2.0.0","22718","22691","Welcome to the experiment. Press any key to begin."," ","","",""
"","","","","","html-keyboard-response","2","2.0.0","27337","4615","
        <p>In this experiment, a circle will appear in the center 
        of the screen.</p><p>If the circle is <strong>blue</strong>, 
        press the letter F on the keyboard as fast as you can.</p>
        <p>If the circle is <strong>orange</strong>, press the letter J 
        as fast as you can.</p>
        <div style='width: 700px;'>
        <div style='float: left;'><img src='images/blue.png'></img>
        <p class='small'><strong>Press the F key</strong></p></div>
        <div style='float: right;'><img src='images/orange.png'></img>
        <p class='small'><strong>Press the J key</strong></p></div>
        </div>
        <p>Press any key to begin.</p>
      ","f","","",""
"","","","","","html-keyboard-response","3","2.0.0","31344","null","<div style=""font-size:60px;"">+</div>","null","fixation","",""
"","","","","","image-keyboard-response","4","2.0.0","31773","422","images/orange.png","j","response","j","true"
"","","","","","html-keyboard-response","5","2.0.0","32277","null","<div style=""font-size:60px;"">+</div>","null","fixation","",""
"","","","","","image-keyboard-response","6","2.0.0","32620","340","images/blue.png","f","response","f","true"
"","","","","","html-keyboard-response","7","2.0.0","33622","null","<div style=""font-size:60px;"">+</div>","null","fixation","",""
"","","","","","image-keyboard-response","8","2.0.0","33928","303","images/blue.png","f","response","f","true"
"","","","","","html-keyboard-response","9","2.0.0","34432","null","<div style=""font-size:60px;"">+</div>","null","fixation","",""
"","","","","","image-keyboard-response","10","2.0.0","34847","412","images/orange.png","j","response","j","true"
"","","","","","html-keyboard-response","11","2.0.0","36101","null","<div style=""font-size:60px;"">+</div>","null","fixation","",""
"","","","","","image-keyboard-response","12","2.0.0","36455","350","images/blue.png","j","response","f","false"
"","","","","","html-keyboard-response","13","2.0.0","37207","null","<div style=""font-size:60px;"">+</div>","null","fixation","",""
"","","","","","image-keyboard-response","14","2.0.0","37674","462","images/orange.png","j","response","j","true"
"","","","","","html-keyboard-response","15","2.0.0","39178","null","<div style=""font-size:60px;"">+</div>","null","fixation","",""
"","","","","","image-keyboard-response","16","2.0.0","39497","315","images/blue.png","j","response","f","false"
"","","","","","html-keyboard-response","17","2.0.0","41250","null","<div style=""font-size:60px;"">+</div>","null","fixation","",""
"","","","","","image-keyboard-response","18","2.0.0","41578","323","images/orange.png","f","response","j","false"
"","","","","","html-keyboard-response","19","2.0.0","42331","null","<div style=""font-size:60px;"">+</div>","null","fixation","",""
"","","","","","image-keyboard-response","20","2.0.0","42723","389","images/orange.png","j","response","j","true"
"","","","","","html-keyboard-response","21","2.0.0","43727","null","<div style=""font-size:60px;"">+</div>","null","fixation","",""
"","","","","","image-keyboard-response","22","2.0.0","44020","289","images/blue.png","f","response","f","true"
"","","","","","html-keyboard-response","23","2.0.0","45274","null","<div style=""font-size:60px;"">+</div>","null","fixation","",""
"","","","","","image-keyboard-response","24","2.0.0","45613","335","images/orange.png","j","response","j","true"
"","","","","","html-keyboard-response","25","2.0.0","47117","null","<div style=""font-size:60px;"">+</div>","null","fixation","",""
"","","","","","image-keyboard-response","26","2.0.0","47506","386","images/blue.png","f","response","f","true"
"","","","","","html-keyboard-response","27","2.0.0","48259","null","<div style=""font-size:60px;"">+</div>","null","fixation","",""
"","","","","","image-keyboard-response","28","2.0.0","48606","344","images/blue.png","f","response","f","true"
"","","","","","html-keyboard-response","29","2.0.0","50360","null","<div style=""font-size:60px;"">+</div>","null","fixation","",""
"","","","","","image-keyboard-response","30","2.0.0","50640","277","images/orange.png","j","response","j","true"
"","","","","","html-keyboard-response","31","2.0.0","51894","null","<div style=""font-size:60px;"">+</div>","null","fixation","",""
"","","","","","image-keyboard-response","32","2.0.0","52432","535","images/blue.png","f","response","f","true"
"","","","","","html-keyboard-response","33","2.0.0","52935","null","<div style=""font-size:60px;"">+</div>","null","fixation","",""
"","","","","","image-keyboard-response","34","2.0.0","53396","458","images/orange.png","j","response","j","true"
"","","","","","html-keyboard-response","35","2.0.0","53899","null","<div style=""font-size:60px;"">+</div>","null","fixation","",""
"","","","","","image-keyboard-response","36","2.0.0","54353","451","images/blue.png","f","response","f","true"
"","","","","","html-keyboard-response","37","2.0.0","55606","null","<div style=""font-size:60px;"">+</div>","null","fixation","",""
"","","","","","image-keyboard-response","38","2.0.0","56014","405","images/orange.png","f","response","j","false"
"","","","","","html-keyboard-response","39","2.0.0","56767","null","<div style=""font-size:60px;"">+</div>","null","fixation","",""
"","","","","","image-keyboard-response","40","2.0.0","57031","260","images/blue.png","f","response","f","true"
"","","","","","html-keyboard-response","41","2.0.0","57535","null","<div style=""font-size:60px;"">+</div>","null","fixation","",""
"","","","","","image-keyboard-response","42","2.0.0","57854","317","images/orange.png","j","response","j","true"
"","","","","","html-keyboard-response","43","2.0.0","58608","null","<div style=""font-size:60px;"">+</div>","null","fixation","",""
"","","","","","image-keyboard-response","44","2.0.0","58973","362","images/blue.png","f","response","f","true"
"","","","","","html-keyboard-response","45","2.0.0","59227","null","<div style=""font-size:60px;"">+</div>","null","fixation","",""
"","","","","","image-keyboard-response","46","2.0.0","59598","368","images/orange.png","f","response","j","false"
"","","","","","html-keyboard-response","47","2.0.0","59851","null","<div style=""font-size:60px;"">+</div>","null","fixation","",""
"","","","","","image-keyboard-response","48","2.0.0","60295","442","images/orange.png","j","response","j","true"
"","","","","","html-keyboard-response","49","2.0.0","62049","null","<div style=""font-size:60px;"">+</div>","null","fixation","",""
"","","","","","image-keyboard-response","50","2.0.0","62427","375","images/blue.png","j","response","f","false"
"","","","","","html-keyboard-response","51","2.0.0","63931","null","<div style=""font-size:60px;"">+</div>","null","fixation","",""
"","","","","","image-keyboard-response","52","2.0.0","64309","375","images/orange.png","f","response","j","false"
"","","","","","html-keyboard-response","53","2.0.0","64813","null","<div style=""font-size:60px;"">+</div>","null","fixation","",""
"","","","","","image-keyboard-response","54","2.0.0","65261","445","images/blue.png","j","response","f","false"
"","","","","","html-keyboard-response","55","2.0.0","65765","null","<div style=""font-size:60px;"">+</div>","null","fixation","",""
"","","","","","image-keyboard-response","56","2.0.0","66228","459","images/blue.png","f","response","f","true"
"","","","","","html-keyboard-response","57","2.0.0","67981","null","<div style=""font-size:60px;"">+</div>","null","fixation","",""
"","","","","","image-keyboard-response","58","2.0.0","68392","406","images/orange.png","f","response","j","false"
"","","","","","html-keyboard-response","59","2.0.0","70396","null","<div style=""font-size:60px;"">+</div>","null","fixation","",""
"","","","","","image-keyboard-response","60","2.0.0","70881","482","images/blue.png","f","response","f","true"
"","","","","","html-keyboard-response","61","2.0.0","72884","null","<div style=""font-size:60px;"">+</div>","null","fixation","",""
"","","","","","image-keyboard-response","62","2.0.0","73220","333","images/orange.png","j","response","j","true"
"","","","","","html-keyboard-response","63","2.0.0","73722","null","<div style=""font-size:60px;"">+</div>","null","fixation","",""
"","","","","","image-keyboard-response","64","2.0.0","74025","298","images/orange.png","f","response","j","false"
"","","","","","html-keyboard-response","65","2.0.0","75779","null","<div style=""font-size:60px;"">+</div>","null","fixation","",""
"","","","","","image-keyboard-response","66","2.0.0","76041","259","images/blue.png","f","response","f","true"
"","","","","","html-keyboard-response","67","2.0.0","76294","null","<div style=""font-size:60px;"">+</div>","null","fixation","",""
"","","","","","image-keyboard-response","68","2.0.0","76609","313","images/blue.png","f","response","f","true"
"","","","","","html-keyboard-response","69","2.0.0","76862","null","<div style=""font-size:60px;"">+</div>","null","fixation","",""
"","","","","","image-keyboard-response","70","2.0.0","77188","322","images/orange.png","j","response","j","true"
"","","","","","html-keyboard-response","71","2.0.0","78190","null","<div style=""font-size:60px;"">+</div>","null","fixation","",""
"","","","","","image-keyboard-response","72","2.0.0","78571","378","images/blue.png","f","response","f","true"
"","","","","","html-keyboard-response","73","2.0.0","80073","null","<div style=""font-size:60px;"">+</div>","null","fixation","",""
"","","","","","image-keyboard-response","74","2.0.0","80378","301","images/orange.png","j","response","j","true"
"","","","","","html-keyboard-response","75","2.0.0","82381","null","<div style=""font-size:60px;"">+</div>","null","fixation","",""
"","","","","","image-keyboard-response","76","2.0.0","82696","312","images/orange.png","j","response","j","true"
"","","","","","html-keyboard-response","77","2.0.0","84449","null","<div style=""font-size:60px;"">+</div>","null","fixation","",""
"","","","","","image-keyboard-response","78","2.0.0","84792","340","images/blue.png","f","response","f","true"
"","","","","","html-keyboard-response","79","2.0.0","85796","null","<div style=""font-size:60px;"">+</div>","null","fixation","",""
"","","","","","image-keyboard-response","80","2.0.0","86186","387","images/orange.png","j","response","j","true"
"","","","","","html-keyboard-response","81","2.0.0","87689","null","<div style=""font-size:60px;"">+</div>","null","fixation","",""
"","","","","","image-keyboard-response","82","2.0.0","88145","453","images/blue.png","f","response","f","true"
"","","","","","html-keyboard-response","83","2.0.0","88398","null","<div style=""font-size:60px;"">+</div>","null","fixation","",""
"","","","","","image-keyboard-response","84","2.0.0","88796","396","images/orange.png","f","response","j","false"
"","","","","","html-keyboard-response","85","2.0.0","90300","null","<div style=""font-size:60px;"">+</div>","null","fixation","",""
"","","","","","image-keyboard-response","86","2.0.0","90699","397","images/blue.png","f","response","f","true"
"","","","","","html-keyboard-response","87","2.0.0","92451","null","<div style=""font-size:60px;"">+</div>","null","fixation","",""
"","","","","","image-keyboard-response","88","2.0.0","92803","350","images/orange.png","j","response","j","true"
"","","","","","html-keyboard-response","89","2.0.0","93056","null","<div style=""font-size:60px;"">+</div>","null","fixation","",""
"","","","","","image-keyboard-response","90","2.0.0","93450","392","images/blue.png","f","response","f","true"
"","","","","","html-keyboard-response","91","2.0.0","95202","null","<div style=""font-size:60px;"">+</div>","null","fixation","",""
"","","","","","image-keyboard-response","92","2.0.0","95551","345","images/orange.png","f","response","j","false"
"","","","","","html-keyboard-response","93","2.0.0","96803","null","<div style=""font-size:60px;"">+</div>","null","fixation","",""
"","","","","","image-keyboard-response","94","2.0.0","97370","564","images/blue.png","f","response","f","true"
"","","","","","html-keyboard-response","95","2.0.0","97873","null","<div style=""font-size:60px;"">+</div>","null","fixation","",""
"","","","","","image-keyboard-response","96","2.0.0","98253","378","images/orange.png","j","response","j","true"
"","","","","","html-keyboard-response","97","2.0.0","99257","null","<div style=""font-size:60px;"">+</div>","null","fixation","",""
"","","","","","image-keyboard-response","98","2.0.0","99627","367","images/blue.png","f","response","f","true"
"","","","","","html-keyboard-response","99","2.0.0","100879","null","<div style=""font-size:60px;"">+</div>","null","fixation","",""
"","","","","","image-keyboard-response","100","2.0.0","101212","331","images/blue.png","f","response","f","true"
"","","","","","html-keyboard-response","101","2.0.0","102466","null","<div style=""font-size:60px;"">+</div>","null","fixation","",""
"","","","","","image-keyboard-response","102","2.0.0","102825","356","images/orange.png","f","response","j","false"
"","","","","","html-keyboard-response","103","2.0.0","106665","3836","<p>You responded correctly on 74% of the trials.</p>
          <p>Your average response time was 376ms.</p>
          <p>Press any key to complete the experiment. Thank you!</p>"," ","","",""
