"success","timeout","failed_images","failed_audio","failed_video","trial_type","trial_index","plugin_version","time_elapsed","rt","stimulus","response","task","correct_response","correct"
"true","false","[]","[]","[]","preload","0","2.0.0","86","","","","","",""
"","","","","","html-keyboard-response","1","2.0.0","2747","2660","Welcome to the experiment. Press any key to begin."," ","","",""
"","","","","","html-keyboard-response","2","2.0.0","12900","10150","
        <p>In this experiment, a circle will appear in the center 
        of the screen.</p><p>If the circle is <strong>blue</strong>, 
        press the letter F on the keyboard as fast as you can.</p>
        <p>If the circle is <strong>orange</strong>, press the letter J 
        as fast as you can.</p>
        <div style='width: 700px;'>
        <div style='float: left;'><img src='images/blue.png'></img>
        <p class='small'><strong>Press the F key</strong></p></div>
        <div style='float: right;'><img src='images/orange.png'></img>
        <p class='small'><strong>Press the J key</strong></p></div>
        </div>
        <p>Press any key to begin.</p>
      ","j","","",""
"","","","","","html-keyboard-response","3","2.0.0","16405","null","<div style=""font-size:60px;"">+</div>","null","fixation","",""
"","","","","","image-keyboard-response","4","2.0.0","17172","763","images/blue.png","f","response","f","true"
"","","","","","html-keyboard-response","5","2.0.0","17424","null","<div style=""font-size:60px;"">+</div>","null","fixation","",""
"","","","","","image-keyboard-response","6","2.0.0","17835","408","images/orange.png","j","response","j","true"
"","","","","","html-keyboard-response","7","2.0.0","19588","null","<div style=""font-size:60px;"">+</div>","null","fixation","",""
"","","","","","image-keyboard-response","8","2.0.0","20075","485","images/blue.png","f","response","f","true"
"","","","","","html-keyboard-response","9","2.0.0","20576","null","<div style=""font-size:60px;"">+</div>","null","fixation","",""
"","","","","","image-keyboard-response","10","2.0.0","20854","276","images/orange.png","j","response","j","true"
"","","","","","html-keyboard-response","11","2.0.0","21857","null","<div style=""font-size:60px;"">+</div>","null","fixation","",""
"","","","","","image-keyboard-response","12","2.0.0","22301","442","images/orange.png","j","response","j","true"
"","","","","","html-keyboard-response","13","2.0.0","22554","null","<div style=""font-size:60px;"">+</div>","null","fixation","",""
"","","","","","image-keyboard-response","14","2.0.0","23037","480","images/blue.png","f","response","f","true"
"","","","","","html-keyboard-response","15","2.0.0","24039","null","<div style=""font-size:60px;"">+</div>","null","fixation","",""
"","","","","","image-keyboard-response","16","2.0.0","24470","429","images/blue.png","f","response","f","true"
"","","","","","html-keyboard-response","17","2.0.0","24973","null","<div style=""font-size:60px;"">+</div>","null","fixation","",""
"","","","","","image-keyboard-response","18","2.0.0","25426","451","images/orange.png","j","response","j","true"
"","","","","","html-keyboard-response","19","2.0.0","26929","null","<div style=""font-size:60px;"">+</div>","null","fixation","",""
"","","","","","image-keyboard-response","20","2.0.0","27297","365","images/blue.png","f","response","f","true"
"","","","","","html-keyboard-response","21","2.0.0","27549","null","<div style=""font-size:60px;"">+</div>","null","fixation","",""
"","","","","","image-keyboard-response","22","2.0.0","27975","423","images/orange.png","j","response","j","true"
"","","","","","html-keyboard-response","23","2.0.0","29228","null","<div style=""font-size:60px;"">+</div>","null","fixation","",""
"","","","","","image-keyboard-response","24","2.0.0","29602","372","images/blue.png","f","response","f","true"
"","","","","","html-keyboard-response","25","2.0.0","30854","null","<div style=""font-size:60px;"">+</div>","null","fixation","",""
"","","","","","image-keyboard-response","26","2.0.0","31325","469","images/orange.png","j","response","j","true"
"","","","","","html-keyboard-response","27","2.0.0","33328","null","<div style=""font-size:60px;"">+</div>","null","fixation","",""
"","","","","","image-keyboard-response","28","2.0.0","33754","424","images/blue.png","f","response","f","true"
"","","","","","html-keyboard-response","29","2.0.0","35257","null","<div style=""font-size:60px;"">+</div>","null","fixation","",""
"","","","","","image-keyboard-response","30","2.0.0","35559","300","images/orange.png","j","response","j","true"
"","","","","","html-keyboard-response","31","2.0.0","35812","null","<div style=""font-size:60px;"">+</div>","null","fixation","",""
"","","","","","image-keyboard-response","32","2.0.0","36378","564","images/orange.png","j","response","j","true"
"","","","","","html-keyboard-response","33","2.0.0","37881","null","<div style=""font-size:60px;"">+</div>","null","fixation","",""
"","","","","","image-keyboard-response","34","2.0.0","38229","346","images/blue.png","f","response","f","true"
"","","","","","html-keyboard-response","35","2.0.0","39982","null","<div style=""font-size:60px;"">+</div>","null","fixation","",""
"","","","","","image-keyboard-response","36","2.0.0","40370","386","images/blue.png","f","response","f","true"
"","","","","","html-keyboard-response","37","2.0.0","42373","null","<div style=""font-size:60px;"">+</div>","null","fixation","",""
"","","","","","image-keyboard-response","38","2.0.0","42849","473","images/orange.png","j","response","j","true"
"","","","","","html-keyboard-response","39","2.0.0","43852","null","<div style=""font-size:60px;"">+</div>","null","fixation","",""
"","","","","","image-keyboard-response","40","2.0.0","44308","454","images/blue.png","f","response","f","true"
"","","","","","html-keyboard-response","41","2.0.0","46310","null","<div style=""font-size:60px;"">+</div>","null","fixation","",""
"","","","","","image-keyboard-response","42","2.0.0","46615","303","images/orange.png","j","response","j","true"
"","","","","","html-keyboard-response","43","2.0.0","47617","null","<div style=""font-size:60px;"">+</div>","null","fixation","",""
"","","","","","image-keyboard-response","44","2.0.0","48080","461","images/blue.png","f","response","f","true"
"","","","","","html-keyboard-response","45","2.0.0","50082","null","<div style=""font-size:60px;"">+</div>","null","fixation","",""
"","","","","","image-keyboard-response","46","2.0.0","50449","364","images/orange.png","j","response","j","true"
"","","","","","html-keyboard-response","47","2.0.0","51951","null","<div style=""font-size:60px;"">+</div>","null","fixation","",""
"","","","","","image-keyboard-response","48","2.0.0","52457","504","images/blue.png","f","response","f","true"
"","","","","","html-keyboard-response","49","2.0.0","52710","null","<div style=""font-size:60px;"">+</div>","null","fixation","",""
"","","","","","image-keyboard-response","50","2.0.0","53306","594","images/orange.png","j","response","j","true"
"","","","","","html-keyboard-response","51","2.0.0","54808","null","<div style=""font-size:60px;"">+</div>","null","fixation","",""
"","","","","","image-keyboard-response","52","2.0.0","55220","410","images/orange.png","j","response","j","true"
"","","","","","html-keyboard-response","53","2.0.0","55722","null","<div style=""font-size:60px;"">+</div>","null","fixation","",""
"","","","","","image-keyboard-response","54","2.0.0","56213","488","images/blue.png","f","response","f","true"
"","","","","","html-keyboard-response","55","2.0.0","56465","null","<div style=""font-size:60px;"">+</div>","null","fixation","",""
"","","","","","image-keyboard-response","56","2.0.0","56872","405","images/orange.png","j","response","j","true"
"","","","","","html-keyboard-response","57","2.0.0","58874","null","<div style=""font-size:60px;"">+</div>","null","fixation","",""
"","","","","","image-keyboard-response","58","2.0.0","59286","410","images/blue.png","f","response","f","true"
"","","","","","html-keyboard-response","59","2.0.0","59539","null","<div style=""font-size:60px;"">+</div>","null","fixation","",""
"","","","","","image-keyboard-response","60","2.0.0","59931","391","images/orange.png","j","response","j","true"
"","","","","","html-keyboard-response","61","2.0.0","60433","null","<div style=""font-size:60px;"">+</div>","null","fixation","",""
"","","","","","image-keyboard-response","62","2.0.0","60900","464","images/blue.png","f","response","f","true"
"","","","","","html-keyboard-response","63","2.0.0","61902","null","<div style=""font-size:60px;"">+</div>","null","fixation","",""
"","","","","","image-keyboard-response","64","2.0.0","62262","358","images/orange.png","j","response","j","true"
"","","","","","html-keyboard-response","65","2.0.0","62515","null","<div style=""font-size:60px;"">+</div>","null","fixation","",""
"","","","","","image-keyboard-response","66","2.0.0","62994","478","images/blue.png","f","response","f","true"
"","","","","","html-keyboard-response","67","2.0.0","63496","null","<div style=""font-size:60px;"">+</div>","null","fixation","",""
"","","","","","image-keyboard-response","68","2.0.0","63875","377","images/orange.png","j","response","j","true"
"","","","","","html-keyboard-response","69","2.0.0","64628","null","<div style=""font-size:60px;"">+</div>","null","fixation","",""
"","","","","","image-keyboard-response","70","2.0.0","65057","427","images/blue.png","f","response","f","true"
"","","","","","html-keyboard-response","71","2.0.0","66060","null","<div style=""font-size:60px;"">+</div>","null","fixation","",""
"","","","","","image-keyboard-response","72","2.0.0","66582","519","images/blue.png","f","response","f","true"
"","","","","","html-keyboard-response","73","2.0.0","67834","null","<div style=""font-size:60px;"">+</div>","null","fixation","",""
"","","","","","image-keyboard-response","74","2.0.0","68166","330","images/orange.png","j","response","j","true"
"","","","","","html-keyboard-response","75","2.0.0","68419","null","<div style=""font-size:60px;"">+</div>","null","fixation","",""
"","","","","","image-keyboard-response","76","2.0.0","68855","435","images/blue.png","f","response","f","true"
"","","","","","html-keyboard-response","77","2.0.0","69108","null","<div style=""font-size:60px;"">+</div>","null","fixation","",""
"","","","","","image-keyboard-response","78","2.0.0","69490","381","images/orange.png","j","response","j","true"
"","","","","","html-keyboard-response","79","2.0.0","70993","null","<div style=""font-size:60px;"">+</div>","null","fixation","",""
"","","","","","image-keyboard-response","80","2.0.0","71370","376","images/blue.png","f","response","f","true"
"","","","","","html-keyboard-response","81","2.0.0","72123","null","<div style=""font-size:60px;"">+</div>","null","fixation","",""
"","","","","","image-keyboard-response","82","2.0.0","72466","341","images/orange.png","j","response","j","true"
"","","","","","html-keyboard-response","83","2.0.0","73468","null","<div style=""font-size:60px;"">+</div>","null","fixation","",""
"","","","","","image-keyboard-response","84","2.0.0","73828","359","images/orange.png","j","response","j","true"
"","","","","","html-keyboard-response","85","2.0.0","75831","null","<div style=""font-size:60px;"">+</div>","null","fixation","",""
"","","","","","image-keyboard-response","86","2.0.0","76253","421","images/blue.png","f","response","f","true"
"","","","","","html-keyboard-response","87","2.0.0","76505","null","<div style=""font-size:60px;"">+</div>","null","fixation","",""
"","","","","","image-keyboard-response","88","2.0.0","76938","430","images/orange.png","j","response","j","true"
"","","","","","html-keyboard-response","89","2.0.0","78940","null","<div style=""font-size:60px;"">+</div>","null","fixation","",""
"","","","","","image-keyboard-response","90","2.0.0","79404","462","images/blue.png","f","response","f","true"
"","","","","","html-keyboard-response","91","2.0.0","81157","null","<div style=""font-size:60px;"">+</div>","null","fixation","",""
"","","","","","image-keyboard-response","92","2.0.0","81633","474","images/orange.png","j","response","j","true"
"","","","","","html-keyboard-response","93","2.0.0","81886","null","<div style=""font-size:60px;"">+</div>","null","fixation","",""
"","","","","","image-keyboard-response","94","2.0.0","82336","448","images/blue.png","f","response","f","true"
"","","","","","html-keyboard-response","95","2.0.0","83838","null","<div style=""font-size:60px;"">+</div>","null","fixation","",""
"","","","","","image-keyboard-response","96","2.0.0","84246","406","images/orange.png","j","response","j","true"
"","","","","","html-keyboard-response","97","2.0.0","84747","null","<div style=""font-size:60px;"">+</div>","null","fixation","",""
"","","","","","image-keyboard-response","98","2.0.0","85156","407","images/blue.png","f","response","f","true"
"","","","","","html-keyboard-response","99","2.0.0","86909","null","<div style=""font-size:60px;"">+</div>","null","fixation","",""
"","","","","","image-keyboard-response","100","2.0.0","87563","652","images/blue.png","f","response","f","true"
"","","","","","html-keyboard-response","101","2.0.0","88816","null","<div style=""font-size:60px;"">+</div>","null","fixation","",""
"","","","","","image-keyboard-response","102","2.0.0","89127","309","images/orange.png","j","response","j","true"
"","","","","","html-keyboard-response","103","2.0.0","105405","16274","<p>You responded correctly on 100% of the trials.</p>
          <p>Your average response time was 430ms.</p>
          <p>Press any key to complete the experiment. Thank you!</p>"," ","","",""
