"success","timeout","failed_images","failed_audio","failed_video","trial_type","trial_index","plugin_version","time_elapsed","rt","stimulus","response","task","correct_response","correct"
"true","false","[]","[]","[]","preload","0","2.0.0","78","","","","","",""
"","","","","","html-keyboard-response","1","2.0.0","7347","7266","Welcome to the experiment. Press any key to begin."," ","","",""
"","","","","","html-keyboard-response","2","2.0.0","27282","19933","
        <p>In this experiment, a circle will appear in the center 
        of the screen.</p><p>If the circle is <strong>blue</strong>, 
        press the letter F on the keyboard as fast as you can.</p>
        <p>If the circle is <strong>orange</strong>, press the letter J 
        as fast as you can.</p>
        <div style='width: 700px;'>
        <div style='float: left;'><img src='images/blue.png'></img>
        <p class='small'><strong>Press the F key</strong></p></div>
        <div style='float: right;'><img src='images/orange.png'></img>
        <p class='small'><strong>Press the J key</strong></p></div>
        </div>
        <p>Press any key to begin.</p>
      "," ","","",""
"","","","","","html-keyboard-response","3","2.0.0","29791","null","<div style=""font-size:60px;"">+</div>","null","fixation","",""
"","","","","","image-keyboard-response","4","2.0.0","30298","498","images/blue.png","f","response","f","true"
"","","","","","html-keyboard-response","5","2.0.0","30551","null","<div style=""font-size:60px;"">+</div>","null","fixation","",""
"","","","","","image-keyboard-response","6","2.0.0","31065","508","images/orange.png","j","response","j","true"
"","","","","","html-keyboard-response","7","2.0.0","31317","null","<div style=""font-size:60px;"">+</div>","null","fixation","",""
"","","","","","image-keyboard-response","8","2.0.0","31760","440","images/blue.png","f","response","f","true"
"","","","","","html-keyboard-response","9","2.0.0","32266","null","<div style=""font-size:60px;"">+</div>","null","fixation","",""
"","","","","","image-keyboard-response","10","2.0.0","32602","334","images/orange.png","j","response","j","true"
"","","","","","html-keyboard-response","11","2.0.0","33604","null","<div style=""font-size:60px;"">+</div>","null","fixation","",""
"","","","","","image-keyboard-response","12","2.0.0","34141","534","images/blue.png","f","response","f","true"
"","","","","","html-keyboard-response","13","2.0.0","35646","null","<div style=""font-size:60px;"">+</div>","null","fixation","",""
"","","","","","image-keyboard-response","14","2.0.0","36153","504","images/orange.png","j","response","j","true"
"","","","","","html-keyboard-response","15","2.0.0","37908","null","<div style=""font-size:60px;"">+</div>","null","fixation","",""
"","","","","","image-keyboard-response","16","2.0.0","38414","503","images/orange.png","j","response","j","true"
"","","","","","html-keyboard-response","17","2.0.0","40167","null","<div style=""font-size:60px;"">+</div>","null","fixation","",""
"","","","","","image-keyboard-response","18","2.0.0","40604","436","images/blue.png","f","response","f","true"
"","","","","","html-keyboard-response","19","2.0.0","41860","null","<div style=""font-size:60px;"">+</div>","null","fixation","",""
"","","","","","image-keyboard-response","20","2.0.0","42180","317","images/blue.png","f","response","f","true"
"","","","","","html-keyboard-response","21","2.0.0","42683","null","<div style=""font-size:60px;"">+</div>","null","fixation","",""
"","","","","","image-keyboard-response","22","2.0.0","43194","509","images/orange.png","j","response","j","true"
"","","","","","html-keyboard-response","23","2.0.0","43697","null","<div style=""font-size:60px;"">+</div>","null","fixation","",""
"","","","","","image-keyboard-response","24","2.0.0","44094","395","images/blue.png","f","response","f","true"
"","","","","","html-keyboard-response","25","2.0.0","44348","null","<div style=""font-size:60px;"">+</div>","null","fixation","",""
"","","","","","image-keyboard-response","26","2.0.0","44785","436","images/orange.png","j","response","j","true"
"","","","","","html-keyboard-response","27","2.0.0","45790","null","<div style=""font-size:60px;"">+</div>","null","fixation","",""
"","","","","","image-keyboard-response","28","2.0.0","46252","460","images/orange.png","f","response","j","false"
"","","","","","html-keyboard-response","29","2.0.0","46757","null","<div style=""font-size:60px;"">+</div>","null","fixation","",""
"","","","","","image-keyboard-response","30","2.0.0","47384","625","images/blue.png","f","response","f","true"
"","","","","","html-keyboard-response","31","2.0.0","49137","null","<div style=""font-size:60px;"">+</div>","null","fixation","",""
"","","","","","image-keyboard-response","32","2.0.0","49654","514","images/blue.png","f","response","f","true"
"","","","","","html-keyboard-response","33","2.0.0","49908","null","<div style=""font-size:60px;"">+</div>","null","fixation","",""
"","","","","","image-keyboard-response","34","2.0.0","50434","524","images/orange.png","j","response","j","true"
"","","","","","html-keyboard-response","35","2.0.0","52189","null","<div style=""font-size:60px;"">+</div>","null","fixation","",""
"","","","","","image-keyboard-response","36","2.0.0","52755","563","images/blue.png","f","response","f","true"
"","","","","","html-keyboard-response","37","2.0.0","53757","null","<div style=""font-size:60px;"">+</div>","null","fixation","",""
"","","","","","image-keyboard-response","38","2.0.0","54228","469","images/orange.png","j","response","j","true"
"","","","","","html-keyboard-response","39","2.0.0","55233","null","<div style=""font-size:60px;"">+</div>","null","fixation","",""
"","","","","","image-keyboard-response","40","2.0.0","55686","451","images/blue.png","f","response","f","true"
"","","","","","html-keyboard-response","41","2.0.0","57439","null","<div style=""font-size:60px;"">+</div>","null","fixation","",""
"","","","","","image-keyboard-response","42","2.0.0","57825","385","images/orange.png","j","response","j","true"
"","","","","","html-keyboard-response","43","2.0.0","59080","null","<div style=""font-size:60px;"">+</div>","null","fixation","",""
"","","","","","image-keyboard-response","44","2.0.0","59697","614","images/orange.png","j","response","j","true"
"","","","","","html-keyboard-response","45","2.0.0","60951","null","<div style=""font-size:60px;"">+</div>","null","fixation","",""
"","","","","","image-keyboard-response","46","2.0.0","61356","403","images/blue.png","f","response","f","true"
"","","","","","html-keyboard-response","47","2.0.0","62611","null","<div style=""font-size:60px;"">+</div>","null","fixation","",""
"","","","","","image-keyboard-response","48","2.0.0","63199","585","images/blue.png","f","response","f","true"
"","","","","","html-keyboard-response","49","2.0.0","63701","null","<div style=""font-size:60px;"">+</div>","null","fixation","",""
"","","","","","image-keyboard-response","50","2.0.0","64352","649","images/orange.png","j","response","j","true"
"","","","","","html-keyboard-response","51","2.0.0","64857","null","<div style=""font-size:60px;"">+</div>","null","fixation","",""
"","","","","","image-keyboard-response","52","2.0.0","65438","578","images/blue.png","f","response","f","true"
"","","","","","html-keyboard-response","53","2.0.0","65691","null","<div style=""font-size:60px;"">+</div>","null","fixation","",""
"","","","","","image-keyboard-response","54","2.0.0","66262","570","images/orange.png","j","response","j","true"
"","","","","","html-keyboard-response","55","2.0.0","67765","null","<div style=""font-size:60px;"">+</div>","null","fixation","",""
"","","","","","image-keyboard-response","56","2.0.0","68417","649","images/orange.png","j","response","j","true"
"","","","","","html-keyboard-response","57","2.0.0","69671","null","<div style=""font-size:60px;"">+</div>","null","fixation","",""
"","","","","","image-keyboard-response","58","2.0.0","70155","482","images/blue.png","f","response","f","true"
"","","","","","html-keyboard-response","59","2.0.0","71660","null","<div style=""font-size:60px;"">+</div>","null","fixation","",""
"","","","","","image-keyboard-response","60","2.0.0","72202","540","images/orange.png","j","response","j","true"
"","","","","","html-keyboard-response","61","2.0.0","74205","null","<div style=""font-size:60px;"">+</div>","null","fixation","",""
"","","","","","image-keyboard-response","62","2.0.0","74674","467","images/blue.png","f","response","f","true"
"","","","","","html-keyboard-response","63","2.0.0","75427","null","<div style=""font-size:60px;"">+</div>","null","fixation","",""
"","","","","","image-keyboard-response","64","2.0.0","75777","347","images/orange.png","f","response","j","false"
"","","","","","html-keyboard-response","65","2.0.0","77030","null","<div style=""font-size:60px;"">+</div>","null","fixation","",""
"","","","","","image-keyboard-response","66","2.0.0","77592","560","images/blue.png","f","response","f","true"
"","","","","","html-keyboard-response","67","2.0.0","78347","null","<div style=""font-size:60px;"">+</div>","null","fixation","",""
"","","","","","image-keyboard-response","68","2.0.0","78864","514","images/blue.png","f","response","f","true"
"","","","","","html-keyboard-response","69","2.0.0","79369","null","<div style=""font-size:60px;"">+</div>","null","fixation","",""
"","","","","","image-keyboard-response","70","2.0.0","79861","489","images/orange.png","j","response","j","true"
"","","","","","html-keyboard-response","71","2.0.0","80865","null","<div style=""font-size:60px;"">+</div>","null","fixation","",""
"","","","","","image-keyboard-response","72","2.0.0","81394","527","images/blue.png","f","response","f","true"
"","","","","","html-keyboard-response","73","2.0.0","83397","null","<div style=""font-size:60px;"">+</div>","null","fixation","",""
"","","","","","image-keyboard-response","74","2.0.0","84079","680","images/orange.png","f","response","j","false"
"","","","","","html-keyboard-response","75","2.0.0","84834","null","<div style=""font-size:60px;"">+</div>","null","fixation","",""
"","","","","","image-keyboard-response","76","2.0.0","85566","729","images/orange.png","j","response","j","true"
"","","","","","html-keyboard-response","77","2.0.0","87318","null","<div style=""font-size:60px;"">+</div>","null","fixation","",""
"","","","","","image-keyboard-response","78","2.0.0","88021","700","images/blue.png","f","response","f","true"
"","","","","","html-keyboard-response","79","2.0.0","89526","null","<div style=""font-size:60px;"">+</div>","null","fixation","",""
"","","","","","image-keyboard-response","80","2.0.0","90068","541","images/blue.png","f","response","f","true"
"","","","","","html-keyboard-response","81","2.0.0","91321","null","<div style=""font-size:60px;"">+</div>","null","fixation","",""
"","","","","","image-keyboard-response","82","2.0.0","91786","463","images/orange.png","j","response","j","true"
"","","","","","html-keyboard-response","83","2.0.0","92290","null","<div style=""font-size:60px;"">+</div>","null","fixation","",""
"","","","","","image-keyboard-response","84","2.0.0","92951","660","images/blue.png","f","response","f","true"
"","","","","","html-keyboard-response","85","2.0.0","94955","null","<div style=""font-size:60px;"">+</div>","null","fixation","",""
"","","","","","image-keyboard-response","86","2.0.0","95585","628","images/orange.png","j","response","j","true"
"","","","","","html-keyboard-response","87","2.0.0","97340","null","<div style=""font-size:60px;"">+</div>","null","fixation","",""
"","","","","","image-keyboard-response","88","2.0.0","97881","538","images/blue.png","f","response","f","true"
"","","","","","html-keyboard-response","89","2.0.0","98384","null","<div style=""font-size:60px;"">+</div>","null","fixation","",""
"","","","","","image-keyboard-response","90","2.0.0","99092","706","images/orange.png","j","response","j","true"
"","","","","","html-keyboard-response","91","2.0.0","100595","null","<div style=""font-size:60px;"">+</div>","null","fixation","",""
"","","","","","image-keyboard-response","92","2.0.0","101097","500","images/blue.png","f","response","f","true"
"","","","","","html-keyboard-response","93","2.0.0","101351","null","<div style=""font-size:60px;"">+</div>","null","fixation","",""
"","","","","","image-keyboard-response","94","2.0.0","102105","752","images/orange.png","j","response","j","true"
"","","","","","html-keyboard-response","95","2.0.0","103108","null","<div style=""font-size:60px;"">+</div>","null","fixation","",""
"","","","","","image-keyboard-response","96","2.0.0","103645","535","images/blue.png","f","response","f","true"
"","","","","","html-keyboard-response","97","2.0.0","104901","null","<div style=""font-size:60px;"">+</div>","null","fixation","",""
"","","","","","image-keyboard-response","98","2.0.0","105414","511","images/orange.png","j","response","j","true"
"","","","","","html-keyboard-response","99","2.0.0","106169","null","<div style=""font-size:60px;"">+</div>","null","fixation","",""
"","","","","","image-keyboard-response","100","2.0.0","106641","468","images/blue.png","f","response","f","true"
"","","","","","html-keyboard-response","101","2.0.0","108646","null","<div style=""font-size:60px;"">+</div>","null","fixation","",""
"","","","","","image-keyboard-response","102","2.0.0","109267","620","images/orange.png","j","response","j","true"
"","","","","","html-keyboard-response","103","2.0.0","118065","8795","<p>You responded correctly on 94% of the trials.</p>
          <p>Your average response time was 530ms.</p>
          <p>Press any key to complete the experiment. Thank you!</p>"," ","","",""
