"success","timeout","failed_images","failed_audio","failed_video","trial_type","trial_index","plugin_version","time_elapsed","rt","stimulus","response","task","correct_response","correct"
"true","false","[]","[]","[]","preload","0","2.0.0","28","","","","","",""
"","","","","","html-keyboard-response","1","2.0.0","3437","3409","Welcome to the experiment. Press any key to begin."," ","","",""
"","","","","","html-keyboard-response","2","2.0.0","10742","7304","
        <p>In this experiment, a circle will appear in the center 
        of the screen.</p><p>If the circle is <strong>blue</strong>, 
        press the letter F on the keyboard as fast as you can.</p>
        <p>If the circle is <strong>orange</strong>, press the letter J 
        as fast as you can.</p>
        <div style='width: 700px;'>
        <div style='float: left;'><img src='images/blue.png'></img>
        <p class='small'><strong>Press the F key</strong></p></div>
        <div style='float: right;'><img src='images/orange.png'></img>
        <p class='small'><strong>Press the J key</strong></p></div>
        </div>
        <p>Press any key to begin.</p>
      "," ","","",""
"","","","","","html-keyboard-response","3","2.0.0","14264","null","<div style=""font-size:60px;"">+</div>","null","fixation","",""
"","","","","","image-keyboard-response","4","2.0.0","14902","631","images/blue.png","f","response","f","true"
"","","","","","html-keyboard-response","5","2.0.0","16919","null","<div style=""font-size:60px;"">+</div>","null","fixation","",""
"","","","","","image-keyboard-response","6","2.0.0","17289","367","images/orange.png","j","response","j","true"
"","","","","","html-keyboard-response","7","2.0.0","17806","null","<div style=""font-size:60px;"">+</div>","null","fixation","",""
"","","","","","image-keyboard-response","8","2.0.0","18139","332","images/orange.png","f","response","j","false"
"","","","","","html-keyboard-response","9","2.0.0","19145","null","<div style=""font-size:60px;"">+</div>","null","fixation","",""
"","","","","","image-keyboard-response","10","2.0.0","20023","876","images/blue.png","f","response","f","true"
"","","","","","html-keyboard-response","11","2.0.0","20290","null","<div style=""font-size:60px;"">+</div>","null","fixation","",""
"","","","","","image-keyboard-response","12","2.0.0","20728","436","images/orange.png","j","response","j","true"
"","","","","","html-keyboard-response","13","2.0.0","22233","null","<div style=""font-size:60px;"">+</div>","null","fixation","",""
"","","","","","image-keyboard-response","14","2.0.0","22682","447","images/blue.png","f","response","f","true"
"","","","","","html-keyboard-response","15","2.0.0","23196","null","<div style=""font-size:60px;"">+</div>","null","fixation","",""
"","","","","","image-keyboard-response","16","2.0.0","23580","381","images/orange.png","j","response","j","true"
"","","","","","html-keyboard-response","17","2.0.0","24588","null","<div style=""font-size:60px;"">+</div>","null","fixation","",""
"","","","","","image-keyboard-response","18","2.0.0","25009","418","images/blue.png","f","response","f","true"
"","","","","","html-keyboard-response","19","2.0.0","26267","null","<div style=""font-size:60px;"">+</div>","null","fixation","",""
"","","","","","image-keyboard-response","20","2.0.0","26797","530","images/orange.png","j","response","j","true"
"","","","","","html-keyboard-response","21","2.0.0","27062","null","<div style=""font-size:60px;"">+</div>","null","fixation","",""
"","","","","","image-keyboard-response","22","2.0.0","27645","582","images/blue.png","f","response","f","true"
"","","","","","html-keyboard-response","23","2.0.0","29160","null","<div style=""font-size:60px;"">+</div>","null","fixation","",""
"","","","","","image-keyboard-response","24","2.0.0","29601","439","images/orange.png","j","response","j","true"
"","","","","","html-keyboard-response","25","2.0.0","30615","null","<div style=""font-size:60px;"">+</div>","null","fixation","",""
"","","","","","image-keyboard-response","26","2.0.0","30960","341","images/blue.png","f","response","f","true"
"","","","","","html-keyboard-response","27","2.0.0","31477","null","<div style=""font-size:60px;"">+</div>","null","fixation","",""
"","","","","","image-keyboard-response","28","2.0.0","31829","349","images/blue.png","f","response","f","true"
"","","","","","html-keyboard-response","29","2.0.0","32595","null","<div style=""font-size:60px;"">+</div>","null","fixation","",""
"","","","","","image-keyboard-response","30","2.0.0","32886","288","images/orange.png","f","response","j","false"
"","","","","","html-keyboard-response","31","2.0.0","33639","null","<div style=""font-size:60px;"">+</div>","null","fixation","",""
"","","","","","image-keyboard-response","32","2.0.0","34079","438","images/orange.png","j","response","j","true"
"","","","","","html-keyboard-response","33","2.0.0","34837","null","<div style=""font-size:60px;"">+</div>","null","fixation","",""
"","","","","","image-keyboard-response","34","2.0.0","35293","454","images/blue.png","f","response","f","true"
"","","","","","html-keyboard-response","35","2.0.0","37058","null","<div style=""font-size:60px;"">+</div>","null","fixation","",""
"","","","","","image-keyboard-response","36","2.0.0","37528","469","images/blue.png","f","response","f","true"
"","","","","","html-keyboard-response","37","2.0.0","39289","null","<div style=""font-size:60px;"">+</div>","null","fixation","",""
"","","","","","image-keyboard-response","38","2.0.0","39774","483","images/orange.png","j","response","j","true"
"","","","","","html-keyboard-response","39","2.0.0","41286","null","<div style=""font-size:60px;"">+</div>","null","fixation","",""
"","","","","","image-keyboard-response","40","2.0.0","41729","442","images/blue.png","f","response","f","true"
"","","","","","html-keyboard-response","41","2.0.0","42234","null","<div style=""font-size:60px;"">+</div>","null","fixation","",""
"","","","","","image-keyboard-response","42","2.0.0","42778","541","images/orange.png","j","response","j","true"
"","","","","","html-keyboard-response","43","2.0.0","44793","null","<div style=""font-size:60px;"">+</div>","null","fixation","",""
"","","","","","image-keyboard-response","44","2.0.0","45349","554","images/blue.png","f","response","f","true"
"","","","","","html-keyboard-response","45","2.0.0","45851","null","<div style=""font-size:60px;"">+</div>","null","fixation","",""
"","","","","","image-keyboard-response","46","2.0.0","46266","412","images/orange.png","j","response","j","true"
"","","","","","html-keyboard-response","47","2.0.0","47776","null","<div style=""font-size:60px;"">+</div>","null","fixation","",""
"","","","","","image-keyboard-response","48","2.0.0","48474","696","images/orange.png","j","response","j","true"
"","","","","","html-keyboard-response","49","2.0.0","48990","null","<div style=""font-size:60px;"">+</div>","null","fixation","",""
"","","","","","image-keyboard-response","50","2.0.0","49402","409","images/blue.png","f","response","f","true"
"","","","","","html-keyboard-response","51","2.0.0","50919","null","<div style=""font-size:60px;"">+</div>","null","fixation","",""
"","","","","","image-keyboard-response","52","2.0.0","51335","414","images/blue.png","f","response","f","true"
"","","","","","html-keyboard-response","53","2.0.0","52351","null","<div style=""font-size:60px;"">+</div>","null","fixation","",""
"","","","","","image-keyboard-response","54","2.0.0","52739","386","images/orange.png","j","response","j","true"
"","","","","","html-keyboard-response","55","2.0.0","54747","null","<div style=""font-size:60px;"">+</div>","null","fixation","",""
"","","","","","image-keyboard-response","56","2.0.0","55303","552","images/blue.png","f","response","f","true"
"","","","","","html-keyboard-response","57","2.0.0","57056","null","<div style=""font-size:60px;"">+</div>","null","fixation","",""
"","","","","","image-keyboard-response","58","2.0.0","57517","459","images/orange.png","j","response","j","true"
"","","","","","html-keyboard-response","59","2.0.0","58528","null","<div style=""font-size:60px;"">+</div>","null","fixation","",""
"","","","","","image-keyboard-response","60","2.0.0","58929","397","images/orange.png","j","response","j","true"
"","","","","","html-keyboard-response","61","2.0.0","59195","null","<div style=""font-size:60px;"">+</div>","null","fixation","",""
"","","","","","image-keyboard-response","62","2.0.0","59702","504","images/blue.png","f","response","f","true"
"","","","","","html-keyboard-response","63","2.0.0","61461","null","<div style=""font-size:60px;"">+</div>","null","fixation","",""
"","","","","","image-keyboard-response","64","2.0.0","61940","477","images/orange.png","j","response","j","true"
"","","","","","html-keyboard-response","65","2.0.0","62454","null","<div style=""font-size:60px;"">+</div>","null","fixation","",""
"","","","","","image-keyboard-response","66","2.0.0","62977","519","images/blue.png","f","response","f","true"
"","","","","","html-keyboard-response","67","2.0.0","64491","null","<div style=""font-size:60px;"">+</div>","null","fixation","",""
"","","","","","image-keyboard-response","68","2.0.0","64951","457","images/orange.png","j","response","j","true"
"","","","","","html-keyboard-response","69","2.0.0","65962","null","<div style=""font-size:60px;"">+</div>","null","fixation","",""
"","","","","","image-keyboard-response","70","2.0.0","66501","539","images/blue.png","f","response","f","true"
"","","","","","html-keyboard-response","71","2.0.0","67513","null","<div style=""font-size:60px;"">+</div>","null","fixation","",""
"","","","","","image-keyboard-response","72","2.0.0","68127","612","images/orange.png","j","response","j","true"
"","","","","","html-keyboard-response","73","2.0.0","69883","null","<div style=""font-size:60px;"">+</div>","null","fixation","",""
"","","","","","image-keyboard-response","74","2.0.0","70232","346","images/blue.png","f","response","f","true"
"","","","","","html-keyboard-response","75","2.0.0","70989","null","<div style=""font-size:60px;"">+</div>","null","fixation","",""
"","","","","","image-keyboard-response","76","2.0.0","71339","349","images/blue.png","f","response","f","true"
"","","","","","html-keyboard-response","77","2.0.0","71599","null","<div style=""font-size:60px;"">+</div>","null","fixation","",""
"","","","","","image-keyboard-response","78","2.0.0","72017","418","images/orange.png","j","response","j","true"
"","","","","","html-keyboard-response","79","2.0.0","74019","null","<div style=""font-size:60px;"">+</div>","null","fixation","",""
"","","","","","image-keyboard-response","80","2.0.0","74375","353","images/blue.png","f","response","f","true"
"","","","","","html-keyboard-response","81","2.0.0","75383","null","<div style=""font-size:60px;"">+</div>","null","fixation","",""
"","","","","","image-keyboard-response","82","2.0.0","75873","488","images/orange.png","j","response","j","true"
"","","","","","html-keyboard-response","83","2.0.0","76379","null","<div style=""font-size:60px;"">+</div>","null","fixation","",""
"","","","","","image-keyboard-response","84","2.0.0","76761","381","images/orange.png","j","response","j","true"
"","","","","","html-keyboard-response","85","2.0.0","78514","null","<div style=""font-size:60px;"">+</div>","null","fixation","",""
"","","","","","image-keyboard-response","86","2.0.0","78911","395","images/blue.png","f","response","f","true"
"","","","","","html-keyboard-response","87","2.0.0","79426","null","<div style=""font-size:60px;"">+</div>","null","fixation","",""
"","","","","","image-keyboard-response","88","2.0.0","79744","317","images/blue.png","f","response","f","true"
"","","","","","html-keyboard-response","89","2.0.0","81502","null","<div style=""font-size:60px;"">+</div>","null","fixation","",""
"","","","","","image-keyboard-response","90","2.0.0","81937","434","images/orange.png","j","response","j","true"
"","","","","","html-keyboard-response","91","2.0.0","83953","null","<div style=""font-size:60px;"">+</div>","null","fixation","",""
"","","","","","image-keyboard-response","92","2.0.0","84484","528","images/blue.png","f","response","f","true"
"","","","","","html-keyboard-response","93","2.0.0","85737","null","<div style=""font-size:60px;"">+</div>","null","fixation","",""
"","","","","","image-keyboard-response","94","2.0.0","86201","463","images/orange.png","j","response","j","true"
"","","","","","html-keyboard-response","95","2.0.0","86953","null","<div style=""font-size:60px;"">+</div>","null","fixation","",""
"","","","","","image-keyboard-response","96","2.0.0","87451","498","images/blue.png","f","response","f","true"
"","","","","","html-keyboard-response","97","2.0.0","88967","null","<div style=""font-size:60px;"">+</div>","null","fixation","",""
"","","","","","image-keyboard-response","98","2.0.0","89447","477","images/orange.png","j","response","j","true"
"","","","","","html-keyboard-response","99","2.0.0","90460","null","<div style=""font-size:60px;"">+</div>","null","fixation","",""
"","","","","","image-keyboard-response","100","2.0.0","90869","406","images/orange.png","j","response","j","true"
"","","","","","html-keyboard-response","101","2.0.0","91881","null","<div style=""font-size:60px;"">+</div>","null","fixation","",""
"","","","","","image-keyboard-response","102","2.0.0","92421","538","images/blue.png","f","response","f","true"
"","","","","","html-keyboard-response","103","2.0.0","96792","4363","<p>You responded correctly on 96% of the trials.</p>
          <p>Your average response time was 467ms.</p>
          <p>Press any key to complete the experiment. Thank you!</p>","j","","",""
