"success","timeout","failed_images","failed_audio","failed_video","trial_type","trial_index","plugin_version","time_elapsed","rt","stimulus","response","task","correct_response","correct"
"true","false","[]","[]","[]","preload","0","2.0.0","84","","","","","",""
"","","","","","html-keyboard-response","1","2.0.0","4611","4524","Welcome to the experiment. Press any key to begin."," ","","",""
"","","","","","html-keyboard-response","2","2.0.0","16332","11719","
        <p>In this experiment, a circle will appear in the center 
        of the screen.</p><p>If the circle is <strong>blue</strong>, 
        press the letter F on the keyboard as fast as you can.</p>
        <p>If the circle is <strong>orange</strong>, press the letter J 
        as fast as you can.</p>
        <div style='width: 700px;'>
        <div style='float: left;'><img src='images/blue.png'></img>
        <p class='small'><strong>Press the F key</strong></p></div>
        <div style='float: right;'><img src='images/orange.png'></img>
        <p class='small'><strong>Press the J key</strong></p></div>
        </div>
        <p>Press any key to begin.</p>
      ","j","","",""
"","","","","","html-keyboard-response","3","2.0.0","19354","null","<div style=""font-size:60px;"">+</div>","null","fixation","",""
"","","","","","image-keyboard-response","4","2.0.0","20870","1512","images/orange.png","j","response","j","true"
"","","","","","html-keyboard-response","5","2.0.0","21874","null","<div style=""font-size:60px;"">+</div>","null","fixation","",""
"","","","","","image-keyboard-response","6","2.0.0","22546","670","images/blue.png","f","response","f","true"
"","","","","","html-keyboard-response","7","2.0.0","23051","null","<div style=""font-size:60px;"">+</div>","null","fixation","",""
"","","","","","image-keyboard-response","8","2.0.0","23912","859","images/orange.png","j","response","j","true"
"","","","","","html-keyboard-response","9","2.0.0","24419","null","<div style=""font-size:60px;"">+</div>","null","fixation","",""
"","","","","","image-keyboard-response","10","2.0.0","24925","504","images/blue.png","f","response","f","true"
"","","","","","html-keyboard-response","11","2.0.0","25683","null","<div style=""font-size:60px;"">+</div>","null","fixation","",""
"","","","","","image-keyboard-response","12","2.0.0","26113","427","images/blue.png","f","response","f","true"
"","","","","","html-keyboard-response","13","2.0.0","28123","null","<div style=""font-size:60px;"">+</div>","null","fixation","",""
"","","","","","image-keyboard-response","14","2.0.0","28989","865","images/orange.png","j","response","j","true"
"","","","","","html-keyboard-response","15","2.0.0","30253","null","<div style=""font-size:60px;"">+</div>","null","fixation","",""
"","","","","","image-keyboard-response","16","2.0.0","30793","538","images/blue.png","f","response","f","true"
"","","","","","html-keyboard-response","17","2.0.0","31547","null","<div style=""font-size:60px;"">+</div>","null","fixation","",""
"","","","","","image-keyboard-response","18","2.0.0","32057","509","images/orange.png","j","response","j","true"
"","","","","","html-keyboard-response","19","2.0.0","32812","null","<div style=""font-size:60px;"">+</div>","null","fixation","",""
"","","","","","image-keyboard-response","20","2.0.0","33533","720","images/orange.png","j","response","j","true"
"","","","","","html-keyboard-response","21","2.0.0","35035","null","<div style=""font-size:60px;"">+</div>","null","fixation","",""
"","","","","","image-keyboard-response","22","2.0.0","35578","541","images/blue.png","f","response","f","true"
"","","","","","html-keyboard-response","23","2.0.0","36337","null","<div style=""font-size:60px;"">+</div>","null","fixation","",""
"","","","","","image-keyboard-response","24","2.0.0","36830","491","images/orange.png","j","response","j","true"
"","","","","","html-keyboard-response","25","2.0.0","37337","null","<div style=""font-size:60px;"">+</div>","null","fixation","",""
"","","","","","image-keyboard-response","26","2.0.0","37908","569","images/blue.png","f","response","f","true"
"","","","","","html-keyboard-response","27","2.0.0","39674","null","<div style=""font-size:60px;"">+</div>","null","fixation","",""
"","","","","","image-keyboard-response","28","2.0.0","40176","500","images/blue.png","f","response","f","true"
"","","","","","html-keyboard-response","29","2.0.0","40941","null","<div style=""font-size:60px;"">+</div>","null","fixation","",""
"","","","","","image-keyboard-response","30","2.0.0","41450","507","images/orange.png","j","response","j","true"
"","","","","","html-keyboard-response","31","2.0.0","42206","null","<div style=""font-size:60px;"">+</div>","null","fixation","",""
"","","","","","image-keyboard-response","32","2.0.0","42610","404","images/orange.png","j","response","j","true"
"","","","","","html-keyboard-response","33","2.0.0","44364","null","<div style=""font-size:60px;"">+</div>","null","fixation","",""
"","","","","","image-keyboard-response","34","2.0.0","45135","770","images/blue.png","f","response","f","true"
"","","","","","html-keyboard-response","35","2.0.0","45892","null","<div style=""font-size:60px;"">+</div>","null","fixation","",""
"","","","","","image-keyboard-response","36","2.0.0","46469","576","images/orange.png","j","response","j","true"
"","","","","","html-keyboard-response","37","2.0.0","47733","null","<div style=""font-size:60px;"">+</div>","null","fixation","",""
"","","","","","image-keyboard-response","38","2.0.0","48274","539","images/blue.png","f","response","f","true"
"","","","","","html-keyboard-response","39","2.0.0","49537","null","<div style=""font-size:60px;"">+</div>","null","fixation","",""
"","","","","","image-keyboard-response","40","2.0.0","50235","696","images/orange.png","j","response","j","true"
"","","","","","html-keyboard-response","41","2.0.0","51996","null","<div style=""font-size:60px;"">+</div>","null","fixation","",""
"","","","","","image-keyboard-response","42","2.0.0","52620","622","images/blue.png","f","response","f","true"
"","","","","","html-keyboard-response","43","2.0.0","53133","null","<div style=""font-size:60px;"">+</div>","null","fixation","",""
"","","","","","image-keyboard-response","44","2.0.0","53866","732","images/blue.png","f","response","f","true"
"","","","","","html-keyboard-response","45","2.0.0","55372","null","<div style=""font-size:60px;"">+</div>","null","fixation","",""
"","","","","","image-keyboard-response","46","2.0.0","55875","501","images/orange.png","j","response","j","true"
"","","","","","html-keyboard-response","47","2.0.0","57885","null","<div style=""font-size:60px;"">+</div>","null","fixation","",""
"","","","","","image-keyboard-response","48","2.0.0","58450","562","images/blue.png","f","response","f","true"
"","","","","","html-keyboard-response","49","2.0.0","58712","null","<div style=""font-size:60px;"">+</div>","null","fixation","",""
"","","","","","image-keyboard-response","50","2.0.0","59400","686","images/orange.png","j","response","j","true"
"","","","","","html-keyboard-response","51","2.0.0","60168","null","<div style=""font-size:60px;"">+</div>","null","fixation","",""
"","","","","","image-keyboard-response","52","2.0.0","60685","516","images/blue.png","f","response","f","true"
"","","","","","html-keyboard-response","53","2.0.0","61954","null","<div style=""font-size:60px;"">+</div>","null","fixation","",""
"","","","","","image-keyboard-response","54","2.0.0","62433","477","images/orange.png","j","response","j","true"
"","","","","","html-keyboard-response","55","2.0.0","64197","null","<div style=""font-size:60px;"">+</div>","null","fixation","",""
"","","","","","image-keyboard-response","56","2.0.0","64756","558","images/orange.png","j","response","j","true"
"","","","","","html-keyboard-response","57","2.0.0","65511","null","<div style=""font-size:60px;"">+</div>","null","fixation","",""
"","","","","","image-keyboard-response","58","2.0.0","66030","518","images/blue.png","f","response","f","true"
"","","","","","html-keyboard-response","59","2.0.0","67045","null","<div style=""font-size:60px;"">+</div>","null","fixation","",""
"","","","","","image-keyboard-response","60","2.0.0","67704","658","images/orange.png","j","response","j","true"
"","","","","","html-keyboard-response","61","2.0.0","69469","null","<div style=""font-size:60px;"">+</div>","null","fixation","",""
"","","","","","image-keyboard-response","62","2.0.0","70083","613","images/blue.png","f","response","f","true"
"","","","","","html-keyboard-response","63","2.0.0","71087","null","<div style=""font-size:60px;"">+</div>","null","fixation","",""
"","","","","","image-keyboard-response","64","2.0.0","71618","528","images/blue.png","f","response","f","true"
"","","","","","html-keyboard-response","65","2.0.0","73375","null","<div style=""font-size:60px;"">+</div>","null","fixation","",""
"","","","","","image-keyboard-response","66","2.0.0","74042","666","images/orange.png","j","response","j","true"
"","","","","","html-keyboard-response","67","2.0.0","74553","null","<div style=""font-size:60px;"">+</div>","null","fixation","",""
"","","","","","image-keyboard-response","68","2.0.0","75059","505","images/orange.png","j","response","j","true"
"","","","","","html-keyboard-response","69","2.0.0","76065","null","<div style=""font-size:60px;"">+</div>","null","fixation","",""
"","","","","","image-keyboard-response","70","2.0.0","76595","529","images/blue.png","f","response","f","true"
"","","","","","html-keyboard-response","71","2.0.0","77850","null","<div style=""font-size:60px;"">+</div>","null","fixation","",""
"","","","","","image-keyboard-response","72","2.0.0","78426","575","images/orange.png","j","response","j","true"
"","","","","","html-keyboard-response","73","2.0.0","78687","null","<div style=""font-size:60px;"">+</div>","null","fixation","",""
"","","","","","image-keyboard-response","74","2.0.0","79555","866","images/blue.png","f","response","f","true"
"","","","","","html-keyboard-response","75","2.0.0","80065","null","<div style=""font-size:60px;"">+</div>","null","fixation","",""
"","","","","","image-keyboard-response","76","2.0.0","80546","479","images/blue.png","f","response","f","true"
"","","","","","html-keyboard-response","77","2.0.0","82552","null","<div style=""font-size:60px;"">+</div>","null","fixation","",""
"","","","","","image-keyboard-response","78","2.0.0","83064","511","images/orange.png","j","response","j","true"
"","","","","","html-keyboard-response","79","2.0.0","83821","null","<div style=""font-size:60px;"">+</div>","null","fixation","",""
"","","","","","image-keyboard-response","80","2.0.0","84256","433","images/orange.png","j","response","j","true"
"","","","","","html-keyboard-response","81","2.0.0","85520","null","<div style=""font-size:60px;"">+</div>","null","fixation","",""
"","","","","","image-keyboard-response","82","2.0.0","85988","466","images/blue.png","f","response","f","true"
"","","","","","html-keyboard-response","83","2.0.0","87992","null","<div style=""font-size:60px;"">+</div>","null","fixation","",""
"","","","","","image-keyboard-response","84","2.0.0","88508","514","images/blue.png","f","response","f","true"
"","","","","","html-keyboard-response","85","2.0.0","89775","null","<div style=""font-size:60px;"">+</div>","null","fixation","",""
"","","","","","image-keyboard-response","86","2.0.0","90140","364","images/orange.png","j","response","j","true"
"","","","","","html-keyboard-response","87","2.0.0","91143","null","<div style=""font-size:60px;"">+</div>","null","fixation","",""
"","","","","","image-keyboard-response","88","2.0.0","91645","499","images/orange.png","j","response","j","true"
"","","","","","html-keyboard-response","89","2.0.0","91908","null","<div style=""font-size:60px;"">+</div>","null","fixation","",""
"","","","","","image-keyboard-response","90","2.0.0","92687","777","images/blue.png","f","response","f","true"
"","","","","","html-keyboard-response","91","2.0.0","93704","null","<div style=""font-size:60px;"">+</div>","null","fixation","",""
"","","","","","image-keyboard-response","92","2.0.0","94268","563","images/orange.png","j","response","j","true"
"","","","","","html-keyboard-response","93","2.0.0","95780","null","<div style=""font-size:60px;"">+</div>","null","fixation","",""
"","","","","","image-keyboard-response","94","2.0.0","96361","580","images/blue.png","f","response","f","true"
"","","","","","html-keyboard-response","95","2.0.0","97614","null","<div style=""font-size:60px;"">+</div>","null","fixation","",""
"","","","","","image-keyboard-response","96","2.0.0","98184","568","images/blue.png","f","response","f","true"
"","","","","","html-keyboard-response","97","2.0.0","98437","null","<div style=""font-size:60px;"">+</div>","null","fixation","",""
"","","","","","image-keyboard-response","98","2.0.0","99030","592","images/orange.png","j","response","j","true"
"","","","","","html-keyboard-response","99","2.0.0","100539","null","<div style=""font-size:60px;"">+</div>","null","fixation","",""
"","","","","","image-keyboard-response","100","2.0.0","100907","366","images/orange.png","j","response","j","true"
"","","","","","html-keyboard-response","101","2.0.0","102165","null","<div style=""font-size:60px;"">+</div>","null","fixation","",""
"","","","","","image-keyboard-response","102","2.0.0","102595","428","images/blue.png","f","response","f","true"
"","","","","","html-keyboard-response","103","2.0.0","117100","14502","<p>You responded correctly on 100% of the trials.</p>
          <p>Your average response time was 589ms.</p>
          <p>Press any key to complete the experiment. Thank you!</p>"," ","","",""
