"success","timeout","failed_images","failed_audio","failed_video","trial_type","trial_index","plugin_version","time_elapsed","rt","stimulus","response","task","correct_response","correct"
"true","false","[]","[]","[]","preload","0","2.0.0","34","","","","","",""
"","","","","","html-keyboard-response","1","2.0.0","7468","7433","Welcome to the experiment. Press any key to begin."," ","","",""
"","","","","","html-keyboard-response","2","2.0.0","16803","9334","
        <p>In this experiment, a circle will appear in the center 
        of the screen.</p><p>If the circle is <strong>blue</strong>, 
        press the letter F on the keyboard as fast as you can.</p>
        <p>If the circle is <strong>orange</strong>, press the letter J 
        as fast as you can.</p>
        <div style='width: 700px;'>
        <div style='float: left;'><img src='images/blue.png'></img>
        <p class='small'><strong>Press the F key</strong></p></div>
        <div style='float: right;'><img src='images/orange.png'></img>
        <p class='small'><strong>Press the J key</strong></p></div>
        </div>
        <p>Press any key to begin.</p>
      "," ","","",""
"","","","","","html-keyboard-response","3","2.0.0","19808","null","<div style=""font-size:60px;"">+</div>","null","fixation","",""
"","","","","","image-keyboard-response","4","2.0.0","20188","374","images/blue.png","f","response","f","true"
"","","","","","html-keyboard-response","5","2.0.0","21691","null","<div style=""font-size:60px;"">+</div>","null","fixation","",""
"","","","","","image-keyboard-response","6","2.0.0","22100","407","images/orange.png","j","response","j","true"
"","","","","","html-keyboard-response","7","2.0.0","23352","null","<div style=""font-size:60px;"">+</div>","null","fixation","",""
"","","","","","image-keyboard-response","8","2.0.0","23699","345","images/blue.png","j","response","f","false"
"","","","","","html-keyboard-response","9","2.0.0","24701","null","<div style=""font-size:60px;"">+</div>","null","fixation","",""
"","","","","","image-keyboard-response","10","2.0.0","25046","343","images/orange.png","j","response","j","true"
"","","","","","html-keyboard-response","11","2.0.0","26048","null","<div style=""font-size:60px;"">+</div>","null","fixation","",""
"","","","","","image-keyboard-response","12","2.0.0","26399","349","images/blue.png","f","response","f","true"
"","","","","","html-keyboard-response","13","2.0.0","27402","null","<div style=""font-size:60px;"">+</div>","null","fixation","",""
"","","","","","image-keyboard-response","14","2.0.0","27699","296","images/orange.png","j","response","j","true"
"","","","","","html-keyboard-response","15","2.0.0","28201","null","<div style=""font-size:60px;"">+</div>","null","fixation","",""
"","","","","","image-keyboard-response","16","2.0.0","28698","496","images/orange.png","j","response","j","true"
"","","","","","html-keyboard-response","17","2.0.0","29450","null","<div style=""font-size:60px;"">+</div>","null","fixation","",""
"","","","","","image-keyboard-response","18","2.0.0","29796","344","images/blue.png","f","response","f","true"
"","","","","","html-keyboard-response","19","2.0.0","31798","null","<div style=""font-size:60px;"">+</div>","null","fixation","",""
"","","","","","image-keyboard-response","20","2.0.0","32280","481","images/orange.png","j","response","j","true"
"","","","","","html-keyboard-response","21","2.0.0","33282","null","<div style=""font-size:60px;"">+</div>","null","fixation","",""
"","","","","","image-keyboard-response","22","2.0.0","33773","489","images/blue.png","f","response","f","true"
"","","","","","html-keyboard-response","23","2.0.0","35775","null","<div style=""font-size:60px;"">+</div>","null","fixation","",""
"","","","","","image-keyboard-response","24","2.0.0","36250","473","images/blue.png","f","response","f","true"
"","","","","","html-keyboard-response","25","2.0.0","37002","null","<div style=""font-size:60px;"">+</div>","null","fixation","",""
"","","","","","image-keyboard-response","26","2.0.0","37412","408","images/orange.png","j","response","j","true"
"","","","","","html-keyboard-response","27","2.0.0","37664","null","<div style=""font-size:60px;"">+</div>","null","fixation","",""
"","","","","","image-keyboard-response","28","2.0.0","38220","554","images/blue.png","f","response","f","true"
"","","","","","html-keyboard-response","29","2.0.0","39222","null","<div style=""font-size:60px;"">+</div>","null","fixation","",""
"","","","","","image-keyboard-response","30","2.0.0","39715","492","images/orange.png","j","response","j","true"
"","","","","","html-keyboard-response","31","2.0.0","39967","null","<div style=""font-size:60px;"">+</div>","null","fixation","",""
"","","","","","image-keyboard-response","32","2.0.0","40351","383","images/blue.png","f","response","f","true"
"","","","","","html-keyboard-response","33","2.0.0","41603","null","<div style=""font-size:60px;"">+</div>","null","fixation","",""
"","","","","","image-keyboard-response","34","2.0.0","41982","378","images/orange.png","j","response","j","true"
"","","","","","html-keyboard-response","35","2.0.0","42734","null","<div style=""font-size:60px;"">+</div>","null","fixation","",""
"","","","","","image-keyboard-response","36","2.0.0","43142","407","images/orange.png","j","response","j","true"
"","","","","","html-keyboard-response","37","2.0.0","44394","null","<div style=""font-size:60px;"">+</div>","null","fixation","",""
"","","","","","image-keyboard-response","38","2.0.0","44819","424","images/blue.png","f","response","f","true"
"","","","","","html-keyboard-response","39","2.0.0","45071","null","<div style=""font-size:60px;"">+</div>","null","fixation","",""
"","","","","","image-keyboard-response","40","2.0.0","45517","445","images/orange.png","j","response","j","true"
"","","","","","html-keyboard-response","41","2.0.0","47019","null","<div style=""font-size:60px;"">+</div>","null","fixation","",""
"","","","","","image-keyboard-response","42","2.0.0","47387","367","images/blue.png","f","response","f","true"
"","","","","","html-keyboard-response","43","2.0.0","48639","null","<div style=""font-size:60px;"">+</div>","null","fixation","",""
"","","","","","image-keyboard-response","44","2.0.0","49025","385","images/orange.png","j","response","j","true"
"","","","","","html-keyboard-response","45","2.0.0","50778","null","<div style=""font-size:60px;"">+</div>","null","fixation","",""
"","","","","","image-keyboard-response","46","2.0.0","51137","358","images/blue.png","f","response","f","true"
"","","","","","html-keyboard-response","47","2.0.0","52889","null","<div style=""font-size:60px;"">+</div>","null","fixation","",""
"","","","","","image-keyboard-response","48","2.0.0","53268","378","images/orange.png","j","response","j","true"
"","","","","","html-keyboard-response","49","2.0.0","55020","null","<div style=""font-size:60px;"">+</div>","null","fixation","",""
"","","","","","image-keyboard-response","50","2.0.0","55394","372","images/blue.png","f","response","f","true"
"","","","","","html-keyboard-response","51","2.0.0","55645","null","<div style=""font-size:60px;"">+</div>","null","fixation","",""
"","","","","","image-keyboard-response","52","2.0.0","56094","447","images/blue.png","f","response","f","true"
"","","","","","html-keyboard-response","53","2.0.0","57346","null","<div style=""font-size:60px;"">+</div>","null","fixation","",""
"","","","","","image-keyboard-response","54","2.0.0","57796","449","images/orange.png","j","response","j","true"
"","","","","","html-keyboard-response","55","2.0.0","59548","null","<div style=""font-size:60px;"">+</div>","null","fixation","",""
"","","","","","image-keyboard-response","56","2.0.0","60130","580","images/blue.png","f","response","f","true"
"","","","","","html-keyboard-response","57","2.0.0","60882","null","<div style=""font-size:60px;"">+</div>","null","fixation","",""
"","","","","","image-keyboard-response","58","2.0.0","61227","344","images/orange.png","f","response","j","false"
"","","","","","html-keyboard-response","59","2.0.0","63229","null","<div style=""font-size:60px;"">+</div>","null","fixation","",""
"","","","","","image-keyboard-response","60","2.0.0","63953","723","images/orange.png","j","response","j","true"
"","","","","","html-keyboard-response","61","2.0.0","64455","null","<div style=""font-size:60px;"">+</div>","null","fixation","",""
"","","","","","image-keyboard-response","62","2.0.0","64892","435","images/blue.png","f","response","f","true"
"","","","","","html-keyboard-response","63","2.0.0","65394","null","<div style=""font-size:60px;"">+</div>","null","fixation","",""
"","","","","","image-keyboard-response","64","2.0.0","65833","437","images/orange.png","j","response","j","true"
"","","","","","html-keyboard-response","65","2.0.0","66085","null","<div style=""font-size:60px;"">+</div>","null","fixation","",""
"","","","","","image-keyboard-response","66","2.0.0","66629","543","images/blue.png","f","response","f","true"
"","","","","","html-keyboard-response","67","2.0.0","67882","null","<div style=""font-size:60px;"">+</div>","null","fixation","",""
"","","","","","image-keyboard-response","68","2.0.0","68282","399","images/orange.png","j","response","j","true"
"","","","","","html-keyboard-response","69","2.0.0","69033","null","<div style=""font-size:60px;"">+</div>","null","fixation","",""
"","","","","","image-keyboard-response","70","2.0.0","69419","385","images/blue.png","f","response","f","true"
"","","","","","html-keyboard-response","71","2.0.0","70171","null","<div style=""font-size:60px;"">+</div>","null","fixation","",""
"","","","","","image-keyboard-response","72","2.0.0","70634","462","images/blue.png","f","response","f","true"
"","","","","","html-keyboard-response","73","2.0.0","71135","null","<div style=""font-size:60px;"">+</div>","null","fixation","",""
"","","","","","image-keyboard-response","74","2.0.0","71469","333","images/orange.png","j","response","j","true"
"","","","","","html-keyboard-response","75","2.0.0","71720","null","<div style=""font-size:60px;"">+</div>","null","fixation","",""
"","","","","","image-keyboard-response","76","2.0.0","72146","425","images/orange.png","j","response","j","true"
"","","","","","html-keyboard-response","77","2.0.0","72648","null","<div style=""font-size:60px;"">+</div>","null","fixation","",""
"","","","","","image-keyboard-response","78","2.0.0","72988","340","images/blue.png","f","response","f","true"
"","","","","","html-keyboard-response","79","2.0.0","73740","null","<div style=""font-size:60px;"">+</div>","null","fixation","",""
"","","","","","image-keyboard-response","80","2.0.0","74236","494","images/orange.png","j","response","j","true"
"","","","","","html-keyboard-response","81","2.0.0","74737","null","<div style=""font-size:60px;"">+</div>","null","fixation","",""
"","","","","","image-keyboard-response","82","2.0.0","75264","525","images/blue.png","f","response","f","true"
"","","","","","html-keyboard-response","83","2.0.0","75766","null","<div style=""font-size:60px;"">+</div>","null","fixation","",""
"","","","","","image-keyboard-response","84","2.0.0","76232","465","images/orange.png","j","response","j","true"
"","","","","","html-keyboard-response","85","2.0.0","77983","null","<div style=""font-size:60px;"">+</div>","null","fixation","",""
"","","","","","image-keyboard-response","86","2.0.0","78304","320","images/blue.png","f","response","f","true"
"","","","","","html-keyboard-response","87","2.0.0","79806","null","<div style=""font-size:60px;"">+</div>","null","fixation","",""
"","","","","","image-keyboard-response","88","2.0.0","80144","337","images/orange.png","j","response","j","true"
"","","","","","html-keyboard-response","89","2.0.0","80897","null","<div style=""font-size:60px;"">+</div>","null","fixation","",""
"","","","","","image-keyboard-response","90","2.0.0","81313","415","images/blue.png","f","response","f","true"
"","","","","","html-keyboard-response","91","2.0.0","81815","null","<div style=""font-size:60px;"">+</div>","null","fixation","",""
"","","","","","image-keyboard-response","92","2.0.0","82289","473","images/orange.png","j","response","j","true"
"","","","","","html-keyboard-response","93","2.0.0","83791","null","<div style=""font-size:60px;"">+</div>","null","fixation","",""
"","","","","","image-keyboard-response","94","2.0.0","84283","490","images/blue.png","f","response","f","true"
"","","","","","html-keyboard-response","95","2.0.0","86035","null","<div style=""font-size:60px;"">+</div>","null","fixation","",""
"","","","","","image-keyboard-response","96","2.0.0","86355","320","images/orange.png","j","response","j","true"
"","","","","","html-keyboard-response","97","2.0.0","87358","null","<div style=""font-size:60px;"">+</div>","null","fixation","",""
"","","","","","image-keyboard-response","98","2.0.0","87834","475","images/blue.png","f","response","f","true"
"","","","","","html-keyboard-response","99","2.0.0","88335","null","<div style=""font-size:60px;"">+</div>","null","fixation","",""
"","","","","","image-keyboard-response","100","2.0.0","88722","386","images/orange.png","j","response","j","true"
"","","","","","html-keyboard-response","101","2.0.0","89474","null","<div style=""font-size:60px;"">+</div>","null","fixation","",""
"","","","","","image-keyboard-response","102","2.0.0","89900","425","images/blue.png","f","response","f","true"
"","","","","","html-keyboard-response","103","2.0.0","94489","4587","<p>You responded correctly on 96% of the trials.</p>
          <p>Your average response time was 427ms.</p>
          <p>Press any key to complete the experiment. Thank you!</p>"," ","","",""
