"success","timeout","failed_images","failed_audio","failed_video","trial_type","trial_index","plugin_version","time_elapsed","rt","stimulus","response","task","correct_response","correct"
"true","false","[]","[]","[]","preload","0","2.0.0","34","","","","","",""
"","","","","","html-keyboard-response","1","2.0.0","1795","1760","Welcome to the experiment. Press any key to begin."," ","","",""
"","","","","","html-keyboard-response","2","2.0.0","34685","32888","
        <p>In this experiment, a circle will appear in the center 
        of the screen.</p><p>If the circle is <strong>blue</strong>, 
        press the letter F on the keyboard as fast as you can.</p>
        <p>If the circle is <strong>orange</strong>, press the letter J 
        as fast as you can.</p>
        <div style='width: 700px;'>
        <div style='float: left;'><img src='images/blue.png'></img>
        <p class='small'><strong>Press the F key</strong></p></div>
        <div style='float: right;'><img src='images/orange.png'></img>
        <p class='small'><strong>Press the J key</strong></p></div>
        </div>
        <p>Press any key to begin.</p>
      "," ","","",""
"","","","","","html-keyboard-response","3","2.0.0","38457","null","<div style=""font-size:60px;"">+</div>","null","fixation","",""
"","","","","","image-keyboard-response","4","2.0.0","38867","405","images/blue.png","f","response","f","true"
"","","","","","html-keyboard-response","5","2.0.0","40869","null","<div style=""font-size:60px;"">+</div>","null","fixation","",""
"","","","","","image-keyboard-response","6","2.0.0","41237","365","images/orange.png","j","response","j","true"
"","","","","","html-keyboard-response","7","2.0.0","42991","null","<div style=""font-size:60px;"">+</div>","null","fixation","",""
"","","","","","image-keyboard-response","8","2.0.0","43293","300","images/orange.png","j","response","j","true"
"","","","","","html-keyboard-response","9","2.0.0","45057","null","<div style=""font-size:60px;"">+</div>","null","fixation","",""
"","","","","","image-keyboard-response","10","2.0.0","45315","255","images/blue.png","f","response","f","true"
"","","","","","html-keyboard-response","11","2.0.0","46325","null","<div style=""font-size:60px;"">+</div>","null","fixation","",""
"","","","","","image-keyboard-response","12","2.0.0","46654","326","images/orange.png","j","response","j","true"
"","","","","","html-keyboard-response","13","2.0.0","48415","null","<div style=""font-size:60px;"">+</div>","null","fixation","",""
"","","","","","image-keyboard-response","14","2.0.0","48746","328","images/blue.png","f","response","f","true"
"","","","","","html-keyboard-response","15","2.0.0","48999","null","<div style=""font-size:60px;"">+</div>","null","fixation","",""
"","","","","","image-keyboard-response","16","2.0.0","49440","439","images/blue.png","f","response","f","true"
"","","","","","html-keyboard-response","17","2.0.0","51193","null","<div style=""font-size:60px;"">+</div>","null","fixation","",""
"","","","","","image-keyboard-response","18","2.0.0","51505","309","images/orange.png","j","response","j","true"
"","","","","","html-keyboard-response","19","2.0.0","53015","null","<div style=""font-size:60px;"">+</div>","null","fixation","",""
"","","","","","image-keyboard-response","20","2.0.0","53323","306","images/blue.png","f","response","f","true"
"","","","","","html-keyboard-response","21","2.0.0","54329","null","<div style=""font-size:60px;"">+</div>","null","fixation","",""
"","","","","","image-keyboard-response","22","2.0.0","54707","375","images/orange.png","f","response","j","false"
"","","","","","html-keyboard-response","23","2.0.0","56463","null","<div style=""font-size:60px;"">+</div>","null","fixation","",""
"","","","","","image-keyboard-response","24","2.0.0","56799","334","images/blue.png","f","response","f","true"
"","","","","","html-keyboard-response","25","2.0.0","57801","null","<div style=""font-size:60px;"">+</div>","null","fixation","",""
"","","","","","image-keyboard-response","26","2.0.0","58152","349","images/orange.png","j","response","j","true"
"","","","","","html-keyboard-response","27","2.0.0","59405","null","<div style=""font-size:60px;"">+</div>","null","fixation","",""
"","","","","","image-keyboard-response","28","2.0.0","59708","301","images/orange.png","j","response","j","true"
"","","","","","html-keyboard-response","29","2.0.0","61460","null","<div style=""font-size:60px;"">+</div>","null","fixation","",""
"","","","","","image-keyboard-response","30","2.0.0","61818","356","images/blue.png","f","response","f","true"
"","","","","","html-keyboard-response","31","2.0.0","62322","null","<div style=""font-size:60px;"">+</div>","null","fixation","",""
"","","","","","image-keyboard-response","32","2.0.0","62721","397","images/orange.png","j","response","j","true"
"","","","","","html-keyboard-response","33","2.0.0","64737","null","<div style=""font-size:60px;"">+</div>","null","fixation","",""
"","","","","","image-keyboard-response","34","2.0.0","65051","312","images/blue.png","f","response","f","true"
"","","","","","html-keyboard-response","35","2.0.0","66063","null","<div style=""font-size:60px;"">+</div>","null","fixation","",""
"","","","","","image-keyboard-response","36","2.0.0","66407","342","images/orange.png","j","response","j","true"
"","","","","","html-keyboard-response","37","2.0.0","67410","null","<div style=""font-size:60px;"">+</div>","null","fixation","",""
"","","","","","image-keyboard-response","38","2.0.0","67813","401","images/blue.png","j","response","f","false"
"","","","","","html-keyboard-response","39","2.0.0","69576","null","<div style=""font-size:60px;"">+</div>","null","fixation","",""
"","","","","","image-keyboard-response","40","2.0.0","70054","476","images/orange.png","j","response","j","true"
"","","","","","html-keyboard-response","41","2.0.0","71806","null","<div style=""font-size:60px;"">+</div>","null","fixation","",""
"","","","","","image-keyboard-response","42","2.0.0","72113","305","images/blue.png","f","response","f","true"
"","","","","","html-keyboard-response","43","2.0.0","73870","null","<div style=""font-size:60px;"">+</div>","null","fixation","",""
"","","","","","image-keyboard-response","44","2.0.0","74320","448","images/orange.png","j","response","j","true"
"","","","","","html-keyboard-response","45","2.0.0","76079","null","<div style=""font-size:60px;"">+</div>","null","fixation","",""
"","","","","","image-keyboard-response","46","2.0.0","76433","352","images/blue.png","f","response","f","true"
"","","","","","html-keyboard-response","47","2.0.0","78192","null","<div style=""font-size:60px;"">+</div>","null","fixation","",""
"","","","","","image-keyboard-response","48","2.0.0","78602","407","images/orange.png","j","response","j","true"
"","","","","","html-keyboard-response","49","2.0.0","79106","null","<div style=""font-size:60px;"">+</div>","null","fixation","",""
"","","","","","image-keyboard-response","50","2.0.0","79521","413","images/blue.png","f","response","f","true"
"","","","","","html-keyboard-response","51","2.0.0","81025","null","<div style=""font-size:60px;"">+</div>","null","fixation","",""
"","","","","","image-keyboard-response","52","2.0.0","81374","347","images/orange.png","j","response","j","true"
"","","","","","html-keyboard-response","53","2.0.0","81880","null","<div style=""font-size:60px;"">+</div>","null","fixation","",""
"","","","","","image-keyboard-response","54","2.0.0","82231","349","images/blue.png","f","response","f","true"
"","","","","","html-keyboard-response","55","2.0.0","82496","null","<div style=""font-size:60px;"">+</div>","null","fixation","",""
"","","","","","image-keyboard-response","56","2.0.0","82895","398","images/orange.png","j","response","j","true"
"","","","","","html-keyboard-response","57","2.0.0","83899","null","<div style=""font-size:60px;"">+</div>","null","fixation","",""
"","","","","","image-keyboard-response","58","2.0.0","84218","318","images/blue.png","f","response","f","true"
"","","","","","html-keyboard-response","59","2.0.0","85974","null","<div style=""font-size:60px;"">+</div>","null","fixation","",""
"","","","","","image-keyboard-response","60","2.0.0","86340","364","images/blue.png","j","response","f","false"
"","","","","","html-keyboard-response","61","2.0.0","87345","null","<div style=""font-size:60px;"">+</div>","null","fixation","",""
"","","","","","image-keyboard-response","62","2.0.0","87659","312","images/orange.png","j","response","j","true"
"","","","","","html-keyboard-response","63","2.0.0","88914","null","<div style=""font-size:60px;"">+</div>","null","fixation","",""
"","","","","","image-keyboard-response","64","2.0.0","89273","357","images/orange.png","j","response","j","true"
"","","","","","html-keyboard-response","65","2.0.0","90784","null","<div style=""font-size:60px;"">+</div>","null","fixation","",""
"","","","","","image-keyboard-response","66","2.0.0","91079","293","images/blue.png","f","response","f","true"
"","","","","","html-keyboard-response","67","2.0.0","92081","null","<div style=""font-size:60px;"">+</div>","null","fixation","",""
"","","","","","image-keyboard-response","68","2.0.0","92407","324","images/orange.png","f","response","j","false"
"","","","","","html-keyboard-response","69","2.0.0","93659","null","<div style=""font-size:60px;"">+</div>","null","fixation","",""
"","","","","","image-keyboard-response","70","2.0.0","94021","360","images/blue.png","j","response","f","false"
"","","","","","html-keyboard-response","71","2.0.0","94276","null","<div style=""font-size:60px;"">+</div>","null","fixation","",""
"","","","","","image-keyboard-response","72","2.0.0","94862","584","images/blue.png","f","response","f","true"
"","","","","","html-keyboard-response","73","2.0.0","95864","null","<div style=""font-size:60px;"">+</div>","null","fixation","",""
"","","","","","image-keyboard-response","74","2.0.0","96728","861","images/orange.png","j","response","j","true"
"","","","","","html-keyboard-response","75","2.0.0","97241","null","<div style=""font-size:60px;"">+</div>","null","fixation","",""
"","","","","","image-keyboard-response","76","2.0.0","97614","371","images/blue.png","f","response","f","true"
"","","","","","html-keyboard-response","77","2.0.0","98123","null","<div style=""font-size:60px;"">+</div>","null","fixation","",""
"","","","","","image-keyboard-response","78","2.0.0","98599","475","images/orange.png","j","response","j","true"
"","","","","","html-keyboard-response","79","2.0.0","100615","null","<div style=""font-size:60px;"">+</div>","null","fixation","",""
"","","","","","image-keyboard-response","80","2.0.0","101018","401","images/blue.png","f","response","f","true"
"","","","","","html-keyboard-response","81","2.0.0","102022","null","<div style=""font-size:60px;"">+</div>","null","fixation","",""
"","","","","","image-keyboard-response","82","2.0.0","102411","387","images/orange.png","j","response","j","true"
"","","","","","html-keyboard-response","83","2.0.0","104426","null","<div style=""font-size:60px;"">+</div>","null","fixation","",""
"","","","","","image-keyboard-response","84","2.0.0","104827","399","images/orange.png","j","response","j","true"
"","","","","","html-keyboard-response","85","2.0.0","105093","null","<div style=""font-size:60px;"">+</div>","null","fixation","",""
"","","","","","image-keyboard-response","86","2.0.0","105657","561","images/blue.png","f","response","f","true"
"","","","","","html-keyboard-response","87","2.0.0","106410","null","<div style=""font-size:60px;"">+</div>","null","fixation","",""
"","","","","","image-keyboard-response","88","2.0.0","106758","346","images/orange.png","j","response","j","true"
"","","","","","html-keyboard-response","89","2.0.0","108520","null","<div style=""font-size:60px;"">+</div>","null","fixation","",""
"","","","","","image-keyboard-response","90","2.0.0","108921","399","images/blue.png","f","response","f","true"
"","","","","","html-keyboard-response","91","2.0.0","110173","null","<div style=""font-size:60px;"">+</div>","null","fixation","",""
"","","","","","image-keyboard-response","92","2.0.0","110617","442","images/blue.png","f","response","f","true"
"","","","","","html-keyboard-response","93","2.0.0","111132","null","<div style=""font-size:60px;"">+</div>","null","fixation","",""
"","","","","","image-keyboard-response","94","2.0.0","111476","343","images/orange.png","j","response","j","true"
"","","","","","html-keyboard-response","95","2.0.0","113231","null","<div style=""font-size:60px;"">+</div>","null","fixation","",""
"","","","","","image-keyboard-response","96","2.0.0","113654","421","images/blue.png","f","response","f","true"
"","","","","","html-keyboard-response","97","2.0.0","113906","null","<div style=""font-size:60px;"">+</div>","null","fixation","",""
"","","","","","image-keyboard-response","98","2.0.0","114328","421","images/orange.png","j","response","j","true"
"","","","","","html-keyboard-response","99","2.0.0","114590","null","<div style=""font-size:60px;"">+</div>","null","fixation","",""
"","","","","","image-keyboard-response","100","2.0.0","115028","435","images/orange.png","j","response","j","true"
"","","","","","html-keyboard-response","101","2.0.0","115538","null","<div style=""font-size:60px;"">+</div>","null","fixation","",""
"","","","","","image-keyboard-response","102","2.0.0","115928","388","images/blue.png","f","response","f","true"
"","","","","","html-keyboard-response","103","2.0.0","119122","3191","<p>You responded correctly on 90% of the trials.</p>
          <p>Your average response time was 387ms.</p>
          <p>Press any key to complete the experiment. Thank you!</p>"," ","","",""
