"success","timeout","failed_images","failed_audio","failed_video","trial_type","trial_index","plugin_version","time_elapsed","rt","stimulus","response","task","correct_response","correct"
"true","false","[]","[]","[]","preload","0","2.0.0","124","","","","","",""
"","","","","","html-keyboard-response","1","2.0.0","6988","6862","Welcome to the experiment. Press any key to begin.","f","","",""
"","","","","","html-keyboard-response","2","2.0.0","20785","13796","
        <p>In this experiment, a circle will appear in the center 
        of the screen.</p><p>If the circle is <strong>blue</strong>, 
        press the letter F on the keyboard as fast as you can.</p>
        <p>If the circle is <strong>orange</strong>, press the letter J 
        as fast as you can.</p>
        <div style='width: 700px;'>
        <div style='float: left;'><img src='images/blue.png'></img>
        <p class='small'><strong>Press the F key</strong></p></div>
        <div style='float: right;'><img src='images/orange.png'></img>
        <p class='small'><strong>Press the J key</strong></p></div>
        </div>
        <p>Press any key to begin.</p>
      ","f","","",""
"","","","","","html-keyboard-response","3","2.0.0","24051","null","<div style=""font-size:60px;"">+</div>","null","fixation","",""
"","","","","","image-keyboard-response","4","2.0.0","24528","473","images/blue.png","f","response","f","true"
"","","","","","html-keyboard-response","5","2.0.0","25287","null","<div style=""font-size:60px;"">+</div>","null","fixation","",""
"","","","","","image-keyboard-response","6","2.0.0","25665","376","images/orange.png","j","response","j","true"
"","","","","","html-keyboard-response","7","2.0.0","27168","null","<div style=""font-size:60px;"">+</div>","null","fixation","",""
"","","","","","image-keyboard-response","8","2.0.0","27527","357","images/blue.png","f","response","f","true"
"","","","","","html-keyboard-response","9","2.0.0","28036","null","<div style=""font-size:60px;"">+</div>","null","fixation","",""
"","","","","","image-keyboard-response","10","2.0.0","28522","483","images/orange.png","j","response","j","true"
"","","","","","html-keyboard-response","11","2.0.0","30283","null","<div style=""font-size:60px;"">+</div>","null","fixation","",""
"","","","","","image-keyboard-response","12","2.0.0","30570","285","images/orange.png","j","response","j","true"
"","","","","","html-keyboard-response","13","2.0.0","32327","null","<div style=""font-size:60px;"">+</div>","null","fixation","",""
"","","","","","image-keyboard-response","14","2.0.0","32762","433","images/blue.png","f","response","f","true"
"","","","","","html-keyboard-response","15","2.0.0","33017","null","<div style=""font-size:60px;"">+</div>","null","fixation","",""
"","","","","","image-keyboard-response","16","2.0.0","33387","368","images/blue.png","f","response","f","true"
"","","","","","html-keyboard-response","17","2.0.0","34897","null","<div style=""font-size:60px;"">+</div>","null","fixation","",""
"","","","","","image-keyboard-response","18","2.0.0","35293","393","images/orange.png","j","response","j","true"
"","","","","","html-keyboard-response","19","2.0.0","35547","null","<div style=""font-size:60px;"">+</div>","null","fixation","",""
"","","","","","image-keyboard-response","20","2.0.0","36005","456","images/blue.png","f","response","f","true"
"","","","","","html-keyboard-response","21","2.0.0","36257","null","<div style=""font-size:60px;"">+</div>","null","fixation","",""
"","","","","","image-keyboard-response","22","2.0.0","36680","420","images/orange.png","j","response","j","true"
"","","","","","html-keyboard-response","23","2.0.0","37433","null","<div style=""font-size:60px;"">+</div>","null","fixation","",""
"","","","","","image-keyboard-response","24","2.0.0","37828","393","images/blue.png","f","response","f","true"
"","","","","","html-keyboard-response","25","2.0.0","38837","null","<div style=""font-size:60px;"">+</div>","null","fixation","",""
"","","","","","image-keyboard-response","26","2.0.0","39200","361","images/orange.png","j","response","j","true"
"","","","","","html-keyboard-response","27","2.0.0","40963","null","<div style=""font-size:60px;"">+</div>","null","fixation","",""
"","","","","","image-keyboard-response","28","2.0.0","41251","287","images/blue.png","f","response","f","true"
"","","","","","html-keyboard-response","29","2.0.0","42755","null","<div style=""font-size:60px;"">+</div>","null","fixation","",""
"","","","","","image-keyboard-response","30","2.0.0","43035","278","images/orange.png","j","response","j","true"
"","","","","","html-keyboard-response","31","2.0.0","44542","null","<div style=""font-size:60px;"">+</div>","null","fixation","",""
"","","","","","image-keyboard-response","32","2.0.0","44819","275","images/orange.png","f","response","j","false"
"","","","","","html-keyboard-response","33","2.0.0","46579","null","<div style=""font-size:60px;"">+</div>","null","fixation","",""
"","","","","","image-keyboard-response","34","2.0.0","46998","417","images/blue.png","f","response","f","true"
"","","","","","html-keyboard-response","35","2.0.0","48763","null","<div style=""font-size:60px;"">+</div>","null","fixation","",""
"","","","","","image-keyboard-response","36","2.0.0","49073","308","images/orange.png","j","response","j","true"
"","","","","","html-keyboard-response","37","2.0.0","50329","null","<div style=""font-size:60px;"">+</div>","null","fixation","",""
"","","","","","image-keyboard-response","38","2.0.0","50608","277","images/blue.png","f","response","f","true"
"","","","","","html-keyboard-response","39","2.0.0","52611","null","<div style=""font-size:60px;"">+</div>","null","fixation","",""
"","","","","","image-keyboard-response","40","2.0.0","52865","253","images/orange.png","j","response","j","true"
"","","","","","html-keyboard-response","41","2.0.0","53877","null","<div style=""font-size:60px;"">+</div>","null","fixation","",""
"","","","","","image-keyboard-response","42","2.0.0","54234","356","images/blue.png","f","response","f","true"
"","","","","","html-keyboard-response","43","2.0.0","55997","null","<div style=""font-size:60px;"">+</div>","null","fixation","",""
"","","","","","image-keyboard-response","44","2.0.0","56309","309","images/blue.png","j","response","f","false"
"","","","","","html-keyboard-response","45","2.0.0","57322","null","<div style=""font-size:60px;"">+</div>","null","fixation","",""
"","","","","","image-keyboard-response","46","2.0.0","57821","498","images/orange.png","j","response","j","true"
"","","","","","html-keyboard-response","47","2.0.0","59583","null","<div style=""font-size:60px;"">+</div>","null","fixation","",""
"","","","","","image-keyboard-response","48","2.0.0","60035","450","images/orange.png","j","response","j","true"
"","","","","","html-keyboard-response","49","2.0.0","61797","null","<div style=""font-size:60px;"">+</div>","null","fixation","",""
"","","","","","image-keyboard-response","50","2.0.0","62234","435","images/blue.png","f","response","f","true"
"","","","","","html-keyboard-response","51","2.0.0","63237","null","<div style=""font-size:60px;"">+</div>","null","fixation","",""
"","","","","","image-keyboard-response","52","2.0.0","63677","439","images/orange.png","j","response","j","true"
"","","","","","html-keyboard-response","53","2.0.0","65184","null","<div style=""font-size:60px;"">+</div>","null","fixation","",""
"","","","","","image-keyboard-response","54","2.0.0","65720","534","images/blue.png","f","response","f","true"
"","","","","","html-keyboard-response","55","2.0.0","67233","null","<div style=""font-size:60px;"">+</div>","null","fixation","",""
"","","","","","image-keyboard-response","56","2.0.0","67584","350","images/blue.png","f","response","f","true"
"","","","","","html-keyboard-response","57","2.0.0","68341","null","<div style=""font-size:60px;"">+</div>","null","fixation","",""
"","","","","","image-keyboard-response","58","2.0.0","68761","418","images/orange.png","j","response","j","true"
"","","","","","html-keyboard-response","59","2.0.0","69521","null","<div style=""font-size:60px;"">+</div>","null","fixation","",""
"","","","","","image-keyboard-response","60","2.0.0","69889","366","images/orange.png","j","response","j","true"
"","","","","","html-keyboard-response","61","2.0.0","71653","null","<div style=""font-size:60px;"">+</div>","null","fixation","",""
"","","","","","image-keyboard-response","62","2.0.0","72017","362","images/blue.png","f","response","f","true"
"","","","","","html-keyboard-response","63","2.0.0","72777","null","<div style=""font-size:60px;"">+</div>","null","fixation","",""
"","","","","","image-keyboard-response","64","2.0.0","73111","332","images/blue.png","f","response","f","true"
"","","","","","html-keyboard-response","65","2.0.0","73614","null","<div style=""font-size:60px;"">+</div>","null","fixation","",""
"","","","","","image-keyboard-response","66","2.0.0","74011","395","images/orange.png","j","response","j","true"
"","","","","","html-keyboard-response","67","2.0.0","75275","null","<div style=""font-size:60px;"">+</div>","null","fixation","",""
"","","","","","image-keyboard-response","68","2.0.0","75677","400","images/blue.png","f","response","f","true"
"","","","","","html-keyboard-response","69","2.0.0","76687","null","<div style=""font-size:60px;"">+</div>","null","fixation","",""
"","","","","","image-keyboard-response","70","2.0.0","77106","417","images/orange.png","j","response","j","true"
"","","","","","html-keyboard-response","71","2.0.0","77371","null","<div style=""font-size:60px;"">+</div>","null","fixation","",""
"","","","","","image-keyboard-response","72","2.0.0","77893","521","images/orange.png","j","response","j","true"
"","","","","","html-keyboard-response","73","2.0.0","79407","null","<div style=""font-size:60px;"">+</div>","null","fixation","",""
"","","","","","image-keyboard-response","74","2.0.0","79821","412","images/blue.png","f","response","f","true"
"","","","","","html-keyboard-response","75","2.0.0","80075","null","<div style=""font-size:60px;"">+</div>","null","fixation","",""
"","","","","","image-keyboard-response","76","2.0.0","80503","425","images/orange.png","j","response","j","true"
"","","","","","html-keyboard-response","77","2.0.0","81014","null","<div style=""font-size:60px;"">+</div>","null","fixation","",""
"","","","","","image-keyboard-response","78","2.0.0","81432","416","images/blue.png","f","response","f","true"
"","","","","","html-keyboard-response","79","2.0.0","83193","null","<div style=""font-size:60px;"">+</div>","null","fixation","",""
"","","","","","image-keyboard-response","80","2.0.0","83625","429","images/blue.png","f","response","f","true"
"","","","","","html-keyboard-response","81","2.0.0","85392","null","<div style=""font-size:60px;"">+</div>","null","fixation","",""
"","","","","","image-keyboard-response","82","2.0.0","85808","413","images/orange.png","j","response","j","true"
"","","","","","html-keyboard-response","83","2.0.0","86312","null","<div style=""font-size:60px;"">+</div>","null","fixation","",""
"","","","","","image-keyboard-response","84","2.0.0","86899","585","images/orange.png","j","response","j","true"
"","","","","","html-keyboard-response","85","2.0.0","88154","null","<div style=""font-size:60px;"">+</div>","null","fixation","",""
"","","","","","image-keyboard-response","86","2.0.0","88560","404","images/blue.png","f","response","f","true"
"","","","","","html-keyboard-response","87","2.0.0","89562","null","<div style=""font-size:60px;"">+</div>","null","fixation","",""
"","","","","","image-keyboard-response","88","2.0.0","89959","395","images/blue.png","f","response","f","true"
"","","","","","html-keyboard-response","89","2.0.0","91211","null","<div style=""font-size:60px;"">+</div>","null","fixation","",""
"","","","","","image-keyboard-response","90","2.0.0","91675","461","images/orange.png","j","response","j","true"
"","","","","","html-keyboard-response","91","2.0.0","91931","null","<div style=""font-size:60px;"">+</div>","null","fixation","",""
"","","","","","image-keyboard-response","92","2.0.0","92450","518","images/blue.png","f","response","f","true"
"","","","","","html-keyboard-response","93","2.0.0","92711","null","<div style=""font-size:60px;"">+</div>","null","fixation","",""
"","","","","","image-keyboard-response","94","2.0.0","93151","438","images/orange.png","j","response","j","true"
"","","","","","html-keyboard-response","95","2.0.0","93915","null","<div style=""font-size:60px;"">+</div>","null","fixation","",""
"","","","","","image-keyboard-response","96","2.0.0","94274","357","images/orange.png","j","response","j","true"
"","","","","","html-keyboard-response","97","2.0.0","94529","null","<div style=""font-size:60px;"">+</div>","null","fixation","",""
"","","","","","image-keyboard-response","98","2.0.0","94899","368","images/blue.png","f","response","f","true"
"","","","","","html-keyboard-response","99","2.0.0","95658","null","<div style=""font-size:60px;"">+</div>","null","fixation","",""
"","","","","","image-keyboard-response","100","2.0.0","96109","449","images/orange.png","j","response","j","true"
"","","","","","html-keyboard-response","101","2.0.0","96872","null","<div style=""font-size:60px;"">+</div>","null","fixation","",""
"","","","","","image-keyboard-response","102","2.0.0","97285","410","images/blue.png","f","response","f","true"
"","","","","","html-keyboard-response","103","2.0.0","100888","3600","<p>You responded correctly on 96% of the trials.</p>
          <p>Your average response time was 404ms.</p>
          <p>Press any key to complete the experiment. Thank you!</p>","j","","",""
