"success","timeout","failed_images","failed_audio","failed_video","trial_type","trial_index","plugin_version","time_elapsed","rt","stimulus","response","task","correct_response","correct"
"true","false","[]","[]","[]","preload","0","2.0.0","501","","","","","",""
"","","","","","html-keyboard-response","1","2.0.0","2618","2114","Welcome to the experiment. Press any key to begin."," ","","",""
"","","","","","html-keyboard-response","2","2.0.0","14787","12166","
        <p>In this experiment, a circle will appear in the center 
        of the screen.</p><p>If the circle is <strong>blue</strong>, 
        press the letter F on the keyboard as fast as you can.</p>
        <p>If the circle is <strong>orange</strong>, press the letter J 
        as fast as you can.</p>
        <div style='width: 700px;'>
        <div style='float: left;'><img src='images/blue.png'></img>
        <p class='small'><strong>Press the F key</strong></p></div>
        <div style='float: right;'><img src='images/orange.png'></img>
        <p class='small'><strong>Press the J key</strong></p></div>
        </div>
        <p>Press any key to begin.</p>
      "," ","","",""
"","","","","","html-keyboard-response","3","2.0.0","18054","null","<div style=""font-size:60px;"">+</div>","null","fixation","",""
"","","","","","image-keyboard-response","4","2.0.0","18411","354","images/orange.png","j","response","j","true"
"","","","","","html-keyboard-response","5","2.0.0","19176","null","<div style=""font-size:60px;"">+</div>","null","fixation","",""
"","","","","","image-keyboard-response","6","2.0.0","19475","297","images/blue.png","f","response","f","true"
"","","","","","html-keyboard-response","7","2.0.0","20988","null","<div style=""font-size:60px;"">+</div>","null","fixation","",""
"","","","","","image-keyboard-response","8","2.0.0","21399","410","images/blue.png","f","response","f","true"
"","","","","","html-keyboard-response","9","2.0.0","22914","null","<div style=""font-size:60px;"">+</div>","null","fixation","",""
"","","","","","image-keyboard-response","10","2.0.0","23232","316","images/orange.png","j","response","j","true"
"","","","","","html-keyboard-response","11","2.0.0","24498","null","<div style=""font-size:60px;"">+</div>","null","fixation","",""
"","","","","","image-keyboard-response","12","2.0.0","24780","281","images/blue.png","f","response","f","true"
"","","","","","html-keyboard-response","13","2.0.0","26793","null","<div style=""font-size:60px;"">+</div>","null","fixation","",""
"","","","","","image-keyboard-response","14","2.0.0","27120","325","images/orange.png","j","response","j","true"
"","","","","","html-keyboard-response","15","2.0.0","28879","null","<div style=""font-size:60px;"">+</div>","null","fixation","",""
"","","","","","image-keyboard-response","16","2.0.0","29273","392","images/orange.png","j","response","j","true"
"","","","","","html-keyboard-response","17","2.0.0","30787","null","<div style=""font-size:60px;"">+</div>","null","fixation","",""
"","","","","","image-keyboard-response","18","2.0.0","31098","309","images/blue.png","f","response","f","true"
"","","","","","html-keyboard-response","19","2.0.0","32853","null","<div style=""font-size:60px;"">+</div>","null","fixation","",""
"","","","","","image-keyboard-response","20","2.0.0","33239","384","images/blue.png","f","response","f","true"
"","","","","","html-keyboard-response","21","2.0.0","35246","null","<div style=""font-size:60px;"">+</div>","null","fixation","",""
"","","","","","image-keyboard-response","22","2.0.0","35628","380","images/orange.png","j","response","j","true"
"","","","","","html-keyboard-response","23","2.0.0","37630","null","<div style=""font-size:60px;"">+</div>","null","fixation","",""
"","","","","","image-keyboard-response","24","2.0.0","38053","421","images/orange.png","j","response","j","true"
"","","","","","html-keyboard-response","25","2.0.0","39066","null","<div style=""font-size:60px;"">+</div>","null","fixation","",""
"","","","","","image-keyboard-response","26","2.0.0","39473","406","images/blue.png","f","response","f","true"
"","","","","","html-keyboard-response","27","2.0.0","39730","null","<div style=""font-size:60px;"">+</div>","null","fixation","",""
"","","","","","image-keyboard-response","28","2.0.0","40160","428","images/blue.png","f","response","f","true"
"","","","","","html-keyboard-response","29","2.0.0","41165","null","<div style=""font-size:60px;"">+</div>","null","fixation","",""
"","","","","","image-keyboard-response","30","2.0.0","41572","406","images/orange.png","j","response","j","true"
"","","","","","html-keyboard-response","31","2.0.0","41824","null","<div style=""font-size:60px;"">+</div>","null","fixation","",""
"","","","","","image-keyboard-response","32","2.0.0","42214","389","images/orange.png","j","response","j","true"
"","","","","","html-keyboard-response","33","2.0.0","43466","null","<div style=""font-size:60px;"">+</div>","null","fixation","",""
"","","","","","image-keyboard-response","34","2.0.0","43812","345","images/blue.png","f","response","f","true"
"","","","","","html-keyboard-response","35","2.0.0","44572","null","<div style=""font-size:60px;"">+</div>","null","fixation","",""
"","","","","","image-keyboard-response","36","2.0.0","44935","361","images/orange.png","j","response","j","true"
"","","","","","html-keyboard-response","37","2.0.0","46686","null","<div style=""font-size:60px;"">+</div>","null","fixation","",""
"","","","","","image-keyboard-response","38","2.0.0","47068","380","images/blue.png","f","response","f","true"
"","","","","","html-keyboard-response","39","2.0.0","47330","null","<div style=""font-size:60px;"">+</div>","null","fixation","",""
"","","","","","image-keyboard-response","40","2.0.0","47760","429","images/orange.png","j","response","j","true"
"","","","","","html-keyboard-response","41","2.0.0","48765","null","<div style=""font-size:60px;"">+</div>","null","fixation","",""
"","","","","","image-keyboard-response","42","2.0.0","49074","307","images/blue.png","f","response","f","true"
"","","","","","html-keyboard-response","43","2.0.0","50091","null","<div style=""font-size:60px;"">+</div>","null","fixation","",""
"","","","","","image-keyboard-response","44","2.0.0","50447","355","images/blue.png","f","response","f","true"
"","","","","","html-keyboard-response","45","2.0.0","51458","null","<div style=""font-size:60px;"">+</div>","null","fixation","",""
"","","","","","image-keyboard-response","46","2.0.0","51878","419","images/orange.png","j","response","j","true"
"","","","","","html-keyboard-response","47","2.0.0","53884","null","<div style=""font-size:60px;"">+</div>","null","fixation","",""
"","","","","","image-keyboard-response","48","2.0.0","54284","399","images/blue.png","f","response","f","true"
"","","","","","html-keyboard-response","49","2.0.0","54797","null","<div style=""font-size:60px;"">+</div>","null","fixation","",""
"","","","","","image-keyboard-response","50","2.0.0","55182","383","images/orange.png","j","response","j","true"
"","","","","","html-keyboard-response","51","2.0.0","56692","null","<div style=""font-size:60px;"">+</div>","null","fixation","",""
"","","","","","image-keyboard-response","52","2.0.0","57043","350","images/blue.png","f","response","f","true"
"","","","","","html-keyboard-response","53","2.0.0","58802","null","<div style=""font-size:60px;"">+</div>","null","fixation","",""
"","","","","","image-keyboard-response","54","2.0.0","59203","400","images/orange.png","j","response","j","true"
"","","","","","html-keyboard-response","55","2.0.0","59967","null","<div style=""font-size:60px;"">+</div>","null","fixation","",""
"","","","","","image-keyboard-response","56","2.0.0","60331","363","images/orange.png","j","response","j","true"
"","","","","","html-keyboard-response","57","2.0.0","61592","null","<div style=""font-size:60px;"">+</div>","null","fixation","",""
"","","","","","image-keyboard-response","58","2.0.0","61972","379","images/blue.png","f","response","f","true"
"","","","","","html-keyboard-response","59","2.0.0","63983","null","<div style=""font-size:60px;"">+</div>","null","fixation","",""
"","","","","","image-keyboard-response","60","2.0.0","64680","696","images/orange.png","j","response","j","true"
"","","","","","html-keyboard-response","61","2.0.0","66184","null","<div style=""font-size:60px;"">+</div>","null","fixation","",""
"","","","","","image-keyboard-response","62","2.0.0","66544","358","images/blue.png","f","response","f","true"
"","","","","","html-keyboard-response","63","2.0.0","67052","null","<div style=""font-size:60px;"">+</div>","null","fixation","",""
"","","","","","image-keyboard-response","64","2.0.0","67405","353","images/orange.png","j","response","j","true"
"","","","","","html-keyboard-response","65","2.0.0","67666","null","<div style=""font-size:60px;"">+</div>","null","fixation","",""
"","","","","","image-keyboard-response","66","2.0.0","68017","349","images/blue.png","f","response","f","true"
"","","","","","html-keyboard-response","67","2.0.0","68783","null","<div style=""font-size:60px;"">+</div>","null","fixation","",""
"","","","","","image-keyboard-response","68","2.0.0","69073","289","images/blue.png","j","response","f","false"
"","","","","","html-keyboard-response","69","2.0.0","71075","null","<div style=""font-size:60px;"">+</div>","null","fixation","",""
"","","","","","image-keyboard-response","70","2.0.0","71759","683","images/orange.png","j","response","j","true"
"","","","","","html-keyboard-response","71","2.0.0","73263","null","<div style=""font-size:60px;"">+</div>","null","fixation","",""
"","","","","","image-keyboard-response","72","2.0.0","73633","368","images/orange.png","j","response","j","true"
"","","","","","html-keyboard-response","73","2.0.0","74395","null","<div style=""font-size:60px;"">+</div>","null","fixation","",""
"","","","","","image-keyboard-response","74","2.0.0","74788","392","images/blue.png","f","response","f","true"
"","","","","","html-keyboard-response","75","2.0.0","76552","null","<div style=""font-size:60px;"">+</div>","null","fixation","",""
"","","","","","image-keyboard-response","76","2.0.0","76937","384","images/blue.png","f","response","f","true"
"","","","","","html-keyboard-response","77","2.0.0","78945","null","<div style=""font-size:60px;"">+</div>","null","fixation","",""
"","","","","","image-keyboard-response","78","2.0.0","79366","420","images/orange.png","j","response","j","true"
"","","","","","html-keyboard-response","79","2.0.0","79620","null","<div style=""font-size:60px;"">+</div>","null","fixation","",""
"","","","","","image-keyboard-response","80","2.0.0","80076","455","images/blue.png","f","response","f","true"
"","","","","","html-keyboard-response","81","2.0.0","81092","null","<div style=""font-size:60px;"">+</div>","null","fixation","",""
"","","","","","image-keyboard-response","82","2.0.0","81445","351","images/orange.png","j","response","j","true"
"","","","","","html-keyboard-response","83","2.0.0","81961","null","<div style=""font-size:60px;"">+</div>","null","fixation","",""
"","","","","","image-keyboard-response","84","2.0.0","82434","472","images/orange.png","j","response","j","true"
"","","","","","html-keyboard-response","85","2.0.0","83198","null","<div style=""font-size:60px;"">+</div>","null","fixation","",""
"","","","","","image-keyboard-response","86","2.0.0","83601","402","images/blue.png","f","response","f","true"
"","","","","","html-keyboard-response","87","2.0.0","85612","null","<div style=""font-size:60px;"">+</div>","null","fixation","",""
"","","","","","image-keyboard-response","88","2.0.0","86060","446","images/orange.png","j","response","j","true"
"","","","","","html-keyboard-response","89","2.0.0","88061","null","<div style=""font-size:60px;"">+</div>","null","fixation","",""
"","","","","","image-keyboard-response","90","2.0.0","88478","416","images/blue.png","f","response","f","true"
"","","","","","html-keyboard-response","91","2.0.0","89990","null","<div style=""font-size:60px;"">+</div>","null","fixation","",""
"","","","","","image-keyboard-response","92","2.0.0","90454","463","images/orange.png","j","response","j","true"
"","","","","","html-keyboard-response","93","2.0.0","92217","null","<div style=""font-size:60px;"">+</div>","null","fixation","",""
"","","","","","image-keyboard-response","94","2.0.0","92618","399","images/blue.png","f","response","f","true"
"","","","","","html-keyboard-response","95","2.0.0","94627","null","<div style=""font-size:60px;"">+</div>","null","fixation","",""
"","","","","","image-keyboard-response","96","2.0.0","94938","309","images/orange.png","j","response","j","true"
"","","","","","html-keyboard-response","97","2.0.0","96944","null","<div style=""font-size:60px;"">+</div>","null","fixation","",""
"","","","","","image-keyboard-response","98","2.0.0","97353","407","images/blue.png","f","response","f","true"
"","","","","","html-keyboard-response","99","2.0.0","98869","null","<div style=""font-size:60px;"">+</div>","null","fixation","",""
"","","","","","image-keyboard-response","100","2.0.0","99219","349","images/blue.png","f","response","f","true"
"","","","","","html-keyboard-response","101","2.0.0","99478","null","<div style=""font-size:60px;"">+</div>","null","fixation","",""
"","","","","","image-keyboard-response","102","2.0.0","99861","381","images/orange.png","j","response","j","true"
"","","","","","html-keyboard-response","103","2.0.0","105014","5140","<p>You responded correctly on 98% of the trials.</p>
          <p>Your average response time was 392ms.</p>
          <p>Press any key to complete the experiment. Thank you!</p>"," ","","",""
