"success","timeout","failed_images","failed_audio","failed_video","trial_type","trial_index","plugin_version","time_elapsed","rt","stimulus","response","task","correct_response","correct"
"true","false","[]","[]","[]","preload","0","2.0.0","310","","","","","",""
"","","","","","html-keyboard-response","1","2.0.0","20131","19821","Welcome to the experiment. Press any key to begin."," ","","",""
"","","","","","html-keyboard-response","2","2.0.0","42523","22390","
        <p>In this experiment, a circle will appear in the center 
        of the screen.</p><p>If the circle is <strong>blue</strong>, 
        press the letter F on the keyboard as fast as you can.</p>
        <p>If the circle is <strong>orange</strong>, press the letter J 
        as fast as you can.</p>
        <div style='width: 700px;'>
        <div style='float: left;'><img src='images/blue.png'></img>
        <p class='small'><strong>Press the F key</strong></p></div>
        <div style='float: right;'><img src='images/orange.png'></img>
        <p class='small'><strong>Press the J key</strong></p></div>
        </div>
        <p>Press any key to begin.</p>
      ","j","","",""
"","","","","","html-keyboard-response","3","2.0.0","44779","null","<div style=""font-size:60px;"">+</div>","null","fixation","",""
"","","","","","image-keyboard-response","4","2.0.0","45445","661","images/blue.png","f","response","f","true"
"","","","","","html-keyboard-response","5","2.0.0","47448","null","<div style=""font-size:60px;"">+</div>","null","fixation","",""
"","","","","","image-keyboard-response","6","2.0.0","47982","533","images/orange.png","j","response","j","true"
"","","","","","html-keyboard-response","7","2.0.0","48235","null","<div style=""font-size:60px;"">+</div>","null","fixation","",""
"","","","","","image-keyboard-response","8","2.0.0","49313","1076","images/orange.png","j","response","j","true"
"","","","","","html-keyboard-response","9","2.0.0","49815","null","<div style=""font-size:60px;"">+</div>","null","fixation","",""
"","","","","","image-keyboard-response","10","2.0.0","50305","488","images/blue.png","f","response","f","true"
"","","","","","html-keyboard-response","11","2.0.0","52057","null","<div style=""font-size:60px;"">+</div>","null","fixation","",""
"","","","","","image-keyboard-response","12","2.0.0","52550","490","images/orange.png","j","response","j","true"
"","","","","","html-keyboard-response","13","2.0.0","52801","null","<div style=""font-size:60px;"">+</div>","null","fixation","",""
"","","","","","image-keyboard-response","14","2.0.0","53216","413","images/blue.png","f","response","f","true"
"","","","","","html-keyboard-response","15","2.0.0","53969","null","<div style=""font-size:60px;"">+</div>","null","fixation","",""
"","","","","","image-keyboard-response","16","2.0.0","54472","500","images/orange.png","j","response","j","true"
"","","","","","html-keyboard-response","17","2.0.0","56225","null","<div style=""font-size:60px;"">+</div>","null","fixation","",""
"","","","","","image-keyboard-response","18","2.0.0","56657","430","images/blue.png","f","response","f","true"
"","","","","","html-keyboard-response","19","2.0.0","57409","null","<div style=""font-size:60px;"">+</div>","null","fixation","",""
"","","","","","image-keyboard-response","20","2.0.0","57844","433","images/orange.png","j","response","j","true"
"","","","","","html-keyboard-response","21","2.0.0","59846","null","<div style=""font-size:60px;"">+</div>","null","fixation","",""
"","","","","","image-keyboard-response","22","2.0.0","60283","436","images/blue.png","f","response","f","true"
"","","","","","html-keyboard-response","23","2.0.0","60536","null","<div style=""font-size:60px;"">+</div>","null","fixation","",""
"","","","","","image-keyboard-response","24","2.0.0","60934","395","images/blue.png","f","response","f","true"
"","","","","","html-keyboard-response","25","2.0.0","61187","null","<div style=""font-size:60px;"">+</div>","null","fixation","",""
"","","","","","image-keyboard-response","26","2.0.0","61602","413","images/orange.png","j","response","j","true"
"","","","","","html-keyboard-response","27","2.0.0","63354","null","<div style=""font-size:60px;"">+</div>","null","fixation","",""
"","","","","","image-keyboard-response","28","2.0.0","63677","322","images/orange.png","f","response","j","false"
"","","","","","html-keyboard-response","29","2.0.0","64929","null","<div style=""font-size:60px;"">+</div>","null","fixation","",""
"","","","","","image-keyboard-response","30","2.0.0","65353","423","images/blue.png","f","response","f","true"
"","","","","","html-keyboard-response","31","2.0.0","66356","null","<div style=""font-size:60px;"">+</div>","null","fixation","",""
"","","","","","image-keyboard-response","32","2.0.0","66873","514","images/blue.png","f","response","f","true"
"","","","","","html-keyboard-response","33","2.0.0","67875","null","<div style=""font-size:60px;"">+</div>","null","fixation","",""
"","","","","","image-keyboard-response","34","2.0.0","68381","504","images/orange.png","j","response","j","true"
"","","","","","html-keyboard-response","35","2.0.0","70134","null","<div style=""font-size:60px;"">+</div>","null","fixation","",""
"","","","","","image-keyboard-response","36","2.0.0","70512","376","images/orange.png","j","response","j","true"
"","","","","","html-keyboard-response","37","2.0.0","70765","null","<div style=""font-size:60px;"">+</div>","null","fixation","",""
"","","","","","image-keyboard-response","38","2.0.0","71298","532","images/blue.png","f","response","f","true"
"","","","","","html-keyboard-response","39","2.0.0","72551","null","<div style=""font-size:60px;"">+</div>","null","fixation","",""
"","","","","","image-keyboard-response","40","2.0.0","73053","500","images/orange.png","j","response","j","true"
"","","","","","html-keyboard-response","41","2.0.0","74306","null","<div style=""font-size:60px;"">+</div>","null","fixation","",""
"","","","","","image-keyboard-response","42","2.0.0","74782","474","images/blue.png","f","response","f","true"
"","","","","","html-keyboard-response","43","2.0.0","76534","null","<div style=""font-size:60px;"">+</div>","null","fixation","",""
"","","","","","image-keyboard-response","44","2.0.0","77015","479","images/orange.png","j","response","j","true"
"","","","","","html-keyboard-response","45","2.0.0","77268","null","<div style=""font-size:60px;"">+</div>","null","fixation","",""
"","","","","","image-keyboard-response","46","2.0.0","78077","807","images/blue.png","f","response","f","true"
"","","","","","html-keyboard-response","47","2.0.0","79579","null","<div style=""font-size:60px;"">+</div>","null","fixation","",""
"","","","","","image-keyboard-response","48","2.0.0","80017","436","images/orange.png","j","response","j","true"
"","","","","","html-keyboard-response","49","2.0.0","82020","null","<div style=""font-size:60px;"">+</div>","null","fixation","",""
"","","","","","image-keyboard-response","50","2.0.0","82447","426","images/blue.png","f","response","f","true"
"","","","","","html-keyboard-response","51","2.0.0","82699","null","<div style=""font-size:60px;"">+</div>","null","fixation","",""
"","","","","","image-keyboard-response","52","2.0.0","83180","481","images/orange.png","j","response","j","true"
"","","","","","html-keyboard-response","53","2.0.0","84183","null","<div style=""font-size:60px;"">+</div>","null","fixation","",""
"","","","","","image-keyboard-response","54","2.0.0","84851","667","images/blue.png","f","response","f","true"
"","","","","","html-keyboard-response","55","2.0.0","85103","null","<div style=""font-size:60px;"">+</div>","null","fixation","",""
"","","","","","image-keyboard-response","56","2.0.0","85471","366","images/blue.png","f","response","f","true"
"","","","","","html-keyboard-response","57","2.0.0","86223","null","<div style=""font-size:60px;"">+</div>","null","fixation","",""
"","","","","","image-keyboard-response","58","2.0.0","86595","371","images/orange.png","j","response","j","true"
"","","","","","html-keyboard-response","59","2.0.0","88097","null","<div style=""font-size:60px;"">+</div>","null","fixation","",""
"","","","","","image-keyboard-response","60","2.0.0","88539","440","images/blue.png","f","response","f","true"
"","","","","","html-keyboard-response","61","2.0.0","90291","null","<div style=""font-size:60px;"">+</div>","null","fixation","",""
"","","","","","image-keyboard-response","62","2.0.0","90781","488","images/orange.png","j","response","j","true"
"","","","","","html-keyboard-response","63","2.0.0","91534","null","<div style=""font-size:60px;"">+</div>","null","fixation","",""
"","","","","","image-keyboard-response","64","2.0.0","91908","373","images/orange.png","j","response","j","true"
"","","","","","html-keyboard-response","65","2.0.0","93162","null","<div style=""font-size:60px;"">+</div>","null","fixation","",""
"","","","","","image-keyboard-response","66","2.0.0","93651","487","images/blue.png","f","response","f","true"
"","","","","","html-keyboard-response","67","2.0.0","94153","null","<div style=""font-size:60px;"">+</div>","null","fixation","",""
"","","","","","image-keyboard-response","68","2.0.0","94708","554","images/orange.png","j","response","j","true"
"","","","","","html-keyboard-response","69","2.0.0","95710","null","<div style=""font-size:60px;"">+</div>","null","fixation","",""
"","","","","","image-keyboard-response","70","2.0.0","96209","498","images/blue.png","f","response","f","true"
"","","","","","html-keyboard-response","71","2.0.0","96462","null","<div style=""font-size:60px;"">+</div>","null","fixation","",""
"","","","","","image-keyboard-response","72","2.0.0","97398","934","images/blue.png","f","response","f","true"
"","","","","","html-keyboard-response","73","2.0.0","99151","null","<div style=""font-size:60px;"">+</div>","null","fixation","",""
"","","","","","image-keyboard-response","74","2.0.0","99730","576","images/orange.png","j","response","j","true"
"","","","","","html-keyboard-response","75","2.0.0","100232","null","<div style=""font-size:60px;"">+</div>","null","fixation","",""
"","","","","","image-keyboard-response","76","2.0.0","100699","459","images/blue.png","f","response","f","true"
"","","","","","html-keyboard-response","77","2.0.0","102202","null","<div style=""font-size:60px;"">+</div>","null","fixation","",""
"","","","","","image-keyboard-response","78","2.0.0","102591","387","images/orange.png","j","response","j","true"
"","","","","","html-keyboard-response","79","2.0.0","103094","null","<div style=""font-size:60px;"">+</div>","null","fixation","",""
"","","","","","image-keyboard-response","80","2.0.0","103491","396","images/blue.png","j","response","f","false"
"","","","","","html-keyboard-response","81","2.0.0","104744","null","<div style=""font-size:60px;"">+</div>","null","fixation","",""
"","","","","","image-keyboard-response","82","2.0.0","105219","472","images/orange.png","j","response","j","true"
"","","","","","html-keyboard-response","83","2.0.0","107222","null","<div style=""font-size:60px;"">+</div>","null","fixation","",""
"","","","","","image-keyboard-response","84","2.0.0","107594","371","images/blue.png","f","response","f","true"
"","","","","","html-keyboard-response","85","2.0.0","109096","null","<div style=""font-size:60px;"">+</div>","null","fixation","",""
"","","","","","image-keyboard-response","86","2.0.0","109672","574","images/orange.png","j","response","j","true"
"","","","","","html-keyboard-response","87","2.0.0","109925","null","<div style=""font-size:60px;"">+</div>","null","fixation","",""
"","","","","","image-keyboard-response","88","2.0.0","110418","492","images/blue.png","f","response","f","true"
"","","","","","html-keyboard-response","89","2.0.0","112421","null","<div style=""font-size:60px;"">+</div>","null","fixation","",""
"","","","","","image-keyboard-response","90","2.0.0","112738","315","images/orange.png","j","response","j","true"
"","","","","","html-keyboard-response","91","2.0.0","112990","null","<div style=""font-size:60px;"">+</div>","null","fixation","",""
"","","","","","image-keyboard-response","92","2.0.0","113389","397","images/orange.png","j","response","j","true"
"","","","","","html-keyboard-response","93","2.0.0","114391","null","<div style=""font-size:60px;"">+</div>","null","fixation","",""
"","","","","","image-keyboard-response","94","2.0.0","114929","537","images/blue.png","f","response","f","true"
"","","","","","html-keyboard-response","95","2.0.0","115683","null","<div style=""font-size:60px;"">+</div>","null","fixation","",""
"","","","","","image-keyboard-response","96","2.0.0","116005","320","images/blue.png","f","response","f","true"
"","","","","","html-keyboard-response","97","2.0.0","116506","null","<div style=""font-size:60px;"">+</div>","null","fixation","",""
"","","","","","image-keyboard-response","98","2.0.0","117135","627","images/orange.png","j","response","j","true"
"","","","","","html-keyboard-response","99","2.0.0","119137","null","<div style=""font-size:60px;"">+</div>","null","fixation","",""
"","","","","","image-keyboard-response","100","2.0.0","119603","464","images/blue.png","f","response","f","true"
"","","","","","html-keyboard-response","101","2.0.0","119856","null","<div style=""font-size:60px;"">+</div>","null","fixation","",""
"","","","","","image-keyboard-response","102","2.0.0","120334","477","images/orange.png","j","response","j","true"
"","","","","","html-keyboard-response","103","2.0.0","355715","235388","<p>You responded correctly on 96% of the trials.</p>
          <p>Your average response time was 497ms.</p>
          <p>Press any key to complete the experiment. Thank you!</p>"," ","","",""
