"success","timeout","failed_images","failed_audio","failed_video","trial_type","trial_index","plugin_version","time_elapsed","rt","stimulus","response","task","correct_response","correct"
"true","false","[]","[]","[]","preload","0","2.0.0","191","","","","","",""
"","","","","","html-keyboard-response","1","2.0.0","8417","8223","Welcome to the experiment. Press any key to begin."," ","","",""
"","","","","","html-keyboard-response","2","2.0.0","16875","8454","
        <p>In this experiment, a circle will appear in the center 
        of the screen.</p><p>If the circle is <strong>blue</strong>, 
        press the letter F on the keyboard as fast as you can.</p>
        <p>If the circle is <strong>orange</strong>, press the letter J 
        as fast as you can.</p>
        <div style='width: 700px;'>
        <div style='float: left;'><img src='images/blue.png'></img>
        <p class='small'><strong>Press the F key</strong></p></div>
        <div style='float: right;'><img src='images/orange.png'></img>
        <p class='small'><strong>Press the J key</strong></p></div>
        </div>
        <p>Press any key to begin.</p>
      ","f","","",""
"","","","","","html-keyboard-response","3","2.0.0","19641","null","<div style=""font-size:60px;"">+</div>","null","fixation","",""
"","","","","","image-keyboard-response","4","2.0.0","20205","558","images/orange.png","j","response","j","true"
"","","","","","html-keyboard-response","5","2.0.0","22223","null","<div style=""font-size:60px;"">+</div>","null","fixation","",""
"","","","","","image-keyboard-response","6","2.0.0","22653","426","images/blue.png","f","response","f","true"
"","","","","","html-keyboard-response","7","2.0.0","24659","null","<div style=""font-size:60px;"">+</div>","null","fixation","",""
"","","","","","image-keyboard-response","8","2.0.0","24915","252","images/blue.png","j","response","f","false"
"","","","","","html-keyboard-response","9","2.0.0","25173","null","<div style=""font-size:60px;"">+</div>","null","fixation","",""
"","","","","","image-keyboard-response","10","2.0.0","25979","803","images/orange.png","j","response","j","true"
"","","","","","html-keyboard-response","11","2.0.0","27984","null","<div style=""font-size:60px;"">+</div>","null","fixation","",""
"","","","","","image-keyboard-response","12","2.0.0","28458","471","images/orange.png","j","response","j","true"
"","","","","","html-keyboard-response","13","2.0.0","28714","null","<div style=""font-size:60px;"">+</div>","null","fixation","",""
"","","","","","image-keyboard-response","14","2.0.0","29230","513","images/blue.png","f","response","f","true"
"","","","","","html-keyboard-response","15","2.0.0","29740","null","<div style=""font-size:60px;"">+</div>","null","fixation","",""
"","","","","","image-keyboard-response","16","2.0.0","30200","457","images/blue.png","f","response","f","true"
"","","","","","html-keyboard-response","17","2.0.0","30709","null","<div style=""font-size:60px;"">+</div>","null","fixation","",""
"","","","","","image-keyboard-response","18","2.0.0","31127","416","images/orange.png","j","response","j","true"
"","","","","","html-keyboard-response","19","2.0.0","32382","null","<div style=""font-size:60px;"">+</div>","null","fixation","",""
"","","","","","image-keyboard-response","20","2.0.0","32844","459","images/blue.png","f","response","f","true"
"","","","","","html-keyboard-response","21","2.0.0","34848","null","<div style=""font-size:60px;"">+</div>","null","fixation","",""
"","","","","","image-keyboard-response","22","2.0.0","35260","407","images/orange.png","j","response","j","true"
"","","","","","html-keyboard-response","23","2.0.0","35765","null","<div style=""font-size:60px;"">+</div>","null","fixation","",""
"","","","","","image-keyboard-response","24","2.0.0","36234","467","images/orange.png","j","response","j","true"
"","","","","","html-keyboard-response","25","2.0.0","37994","null","<div style=""font-size:60px;"">+</div>","null","fixation","",""
"","","","","","image-keyboard-response","26","2.0.0","38455","458","images/blue.png","f","response","f","true"
"","","","","","html-keyboard-response","27","2.0.0","38708","null","<div style=""font-size:60px;"">+</div>","null","fixation","",""
"","","","","","image-keyboard-response","28","2.0.0","39158","448","images/orange.png","j","response","j","true"
"","","","","","html-keyboard-response","29","2.0.0","39667","null","<div style=""font-size:60px;"">+</div>","null","fixation","",""
"","","","","","image-keyboard-response","30","2.0.0","40148","479","images/blue.png","f","response","f","true"
"","","","","","html-keyboard-response","31","2.0.0","40415","null","<div style=""font-size:60px;"">+</div>","null","fixation","",""
"","","","","","image-keyboard-response","32","2.0.0","40787","370","images/blue.png","j","response","f","false"
"","","","","","html-keyboard-response","33","2.0.0","41292","null","<div style=""font-size:60px;"">+</div>","null","fixation","",""
"","","","","","image-keyboard-response","34","2.0.0","41834","539","images/orange.png","j","response","j","true"
"","","","","","html-keyboard-response","35","2.0.0","42087","null","<div style=""font-size:60px;"">+</div>","null","fixation","",""
"","","","","","image-keyboard-response","36","2.0.0","42661","572","images/blue.png","f","response","f","true"
"","","","","","html-keyboard-response","37","2.0.0","43167","null","<div style=""font-size:60px;"">+</div>","null","fixation","",""
"","","","","","image-keyboard-response","38","2.0.0","43574","405","images/orange.png","j","response","j","true"
"","","","","","html-keyboard-response","39","2.0.0","44087","null","<div style=""font-size:60px;"">+</div>","null","fixation","",""
"","","","","","image-keyboard-response","40","2.0.0","44512","422","images/blue.png","f","response","f","true"
"","","","","","html-keyboard-response","41","2.0.0","45529","null","<div style=""font-size:60px;"">+</div>","null","fixation","",""
"","","","","","image-keyboard-response","42","2.0.0","45846","314","images/orange.png","j","response","j","true"
"","","","","","html-keyboard-response","43","2.0.0","47364","null","<div style=""font-size:60px;"">+</div>","null","fixation","",""
"","","","","","image-keyboard-response","44","2.0.0","47785","419","images/orange.png","j","response","j","true"
"","","","","","html-keyboard-response","45","2.0.0","49798","null","<div style=""font-size:60px;"">+</div>","null","fixation","",""
"","","","","","image-keyboard-response","46","2.0.0","50264","463","images/blue.png","f","response","f","true"
"","","","","","html-keyboard-response","47","2.0.0","50773","null","<div style=""font-size:60px;"">+</div>","null","fixation","",""
"","","","","","image-keyboard-response","48","2.0.0","51240","465","images/orange.png","j","response","j","true"
"","","","","","html-keyboard-response","49","2.0.0","51995","null","<div style=""font-size:60px;"">+</div>","null","fixation","",""
"","","","","","image-keyboard-response","50","2.0.0","52442","444","images/blue.png","f","response","f","true"
"","","","","","html-keyboard-response","51","2.0.0","53706","null","<div style=""font-size:60px;"">+</div>","null","fixation","",""
"","","","","","image-keyboard-response","52","2.0.0","54011","301","images/blue.png","j","response","f","false"
"","","","","","html-keyboard-response","53","2.0.0","55265","null","<div style=""font-size:60px;"">+</div>","null","fixation","",""
"","","","","","image-keyboard-response","54","2.0.0","55614","345","images/orange.png","j","response","j","true"
"","","","","","html-keyboard-response","55","2.0.0","57624","null","<div style=""font-size:60px;"">+</div>","null","fixation","",""
"","","","","","image-keyboard-response","56","2.0.0","58081","453","images/orange.png","j","response","j","true"
"","","","","","html-keyboard-response","57","2.0.0","60094","null","<div style=""font-size:60px;"">+</div>","null","fixation","",""
"","","","","","image-keyboard-response","58","2.0.0","60587","490","images/blue.png","f","response","f","true"
"","","","","","html-keyboard-response","59","2.0.0","62346","null","<div style=""font-size:60px;"">+</div>","null","fixation","",""
"","","","","","image-keyboard-response","60","2.0.0","62801","452","images/orange.png","j","response","j","true"
"","","","","","html-keyboard-response","61","2.0.0","63057","null","<div style=""font-size:60px;"">+</div>","null","fixation","",""
"","","","","","image-keyboard-response","62","2.0.0","63469","409","images/blue.png","f","response","f","true"
"","","","","","html-keyboard-response","63","2.0.0","64474","null","<div style=""font-size:60px;"">+</div>","null","fixation","",""
"","","","","","image-keyboard-response","64","2.0.0","64922","445","images/blue.png","f","response","f","true"
"","","","","","html-keyboard-response","65","2.0.0","66435","null","<div style=""font-size:60px;"">+</div>","null","fixation","",""
"","","","","","image-keyboard-response","66","2.0.0","66862","425","images/orange.png","j","response","j","true"
"","","","","","html-keyboard-response","67","2.0.0","68375","null","<div style=""font-size:60px;"">+</div>","null","fixation","",""
"","","","","","image-keyboard-response","68","2.0.0","68770","392","images/orange.png","j","response","j","true"
"","","","","","html-keyboard-response","69","2.0.0","69282","null","<div style=""font-size:60px;"">+</div>","null","fixation","",""
"","","","","","image-keyboard-response","70","2.0.0","69657","374","images/blue.png","f","response","f","true"
"","","","","","html-keyboard-response","71","2.0.0","71659","null","<div style=""font-size:60px;"">+</div>","null","fixation","",""
"","","","","","image-keyboard-response","72","2.0.0","72000","338","images/blue.png","f","response","f","true"
"","","","","","html-keyboard-response","73","2.0.0","73261","null","<div style=""font-size:60px;"">+</div>","null","fixation","",""
"","","","","","image-keyboard-response","74","2.0.0","73584","319","images/orange.png","j","response","j","true"
"","","","","","html-keyboard-response","75","2.0.0","74593","null","<div style=""font-size:60px;"">+</div>","null","fixation","",""
"","","","","","image-keyboard-response","76","2.0.0","75007","411","images/orange.png","j","response","j","true"
"","","","","","html-keyboard-response","77","2.0.0","76514","null","<div style=""font-size:60px;"">+</div>","null","fixation","",""
"","","","","","image-keyboard-response","78","2.0.0","76791","274","images/blue.png","f","response","f","true"
"","","","","","html-keyboard-response","79","2.0.0","77808","null","<div style=""font-size:60px;"">+</div>","null","fixation","",""
"","","","","","image-keyboard-response","80","2.0.0","78096","285","images/blue.png","f","response","f","true"
"","","","","","html-keyboard-response","81","2.0.0","78611","null","<div style=""font-size:60px;"">+</div>","null","fixation","",""
"","","","","","image-keyboard-response","82","2.0.0","79002","388","images/orange.png","j","response","j","true"
"","","","","","html-keyboard-response","83","2.0.0","79759","null","<div style=""font-size:60px;"">+</div>","null","fixation","",""
"","","","","","image-keyboard-response","84","2.0.0","80218","456","images/blue.png","f","response","f","true"
"","","","","","html-keyboard-response","85","2.0.0","81236","null","<div style=""font-size:60px;"">+</div>","null","fixation","",""
"","","","","","image-keyboard-response","86","2.0.0","81536","297","images/orange.png","j","response","j","true"
"","","","","","html-keyboard-response","87","2.0.0","83050","null","<div style=""font-size:60px;"">+</div>","null","fixation","",""
"","","","","","image-keyboard-response","88","2.0.0","83503","451","images/blue.png","f","response","f","true"
"","","","","","html-keyboard-response","89","2.0.0","84017","null","<div style=""font-size:60px;"">+</div>","null","fixation","",""
"","","","","","image-keyboard-response","90","2.0.0","84395","375","images/orange.png","j","response","j","true"
"","","","","","html-keyboard-response","91","2.0.0","85911","null","<div style=""font-size:60px;"">+</div>","null","fixation","",""
"","","","","","image-keyboard-response","92","2.0.0","86345","433","images/blue.png","f","response","f","true"
"","","","","","html-keyboard-response","93","2.0.0","86855","null","<div style=""font-size:60px;"">+</div>","null","fixation","",""
"","","","","","image-keyboard-response","94","2.0.0","87239","384","images/orange.png","j","response","j","true"
"","","","","","html-keyboard-response","95","2.0.0","88998","null","<div style=""font-size:60px;"">+</div>","null","fixation","",""
"","","","","","image-keyboard-response","96","2.0.0","89418","416","images/blue.png","f","response","f","true"
"","","","","","html-keyboard-response","97","2.0.0","91174","null","<div style=""font-size:60px;"">+</div>","null","fixation","",""
"","","","","","image-keyboard-response","98","2.0.0","91569","393","images/orange.png","j","response","j","true"
"","","","","","html-keyboard-response","99","2.0.0","91822","null","<div style=""font-size:60px;"">+</div>","null","fixation","",""
"","","","","","image-keyboard-response","100","2.0.0","92190","366","images/orange.png","j","response","j","true"
"","","","","","html-keyboard-response","101","2.0.0","93195","null","<div style=""font-size:60px;"">+</div>","null","fixation","",""
"","","","","","image-keyboard-response","102","2.0.0","93563","364","images/blue.png","f","response","f","true"
"","","","","","html-keyboard-response","103","2.0.0","96036","2468","<p>You responded correctly on 94% of the trials.</p>
          <p>Your average response time was 429ms.</p>
          <p>Press any key to complete the experiment. Thank you!</p>"," ","","",""
