"success","timeout","failed_images","failed_audio","failed_video","trial_type","trial_index","plugin_version","time_elapsed","rt","stimulus","response","task","correct_response","correct"
"true","false","[]","[]","[]","preload","0","2.0.0","61","","","","","",""
"","","","","","html-keyboard-response","1","2.0.0","40577","40513","Welcome to the experiment. Press any key to begin."," ","","",""
"","","","","","html-keyboard-response","2","2.0.0","68390","27811","
        <p>In this experiment, a circle will appear in the center 
        of the screen.</p><p>If the circle is <strong>blue</strong>, 
        press the letter F on the keyboard as fast as you can.</p>
        <p>If the circle is <strong>orange</strong>, press the letter J 
        as fast as you can.</p>
        <div style='width: 700px;'>
        <div style='float: left;'><img src='images/blue.png'></img>
        <p class='small'><strong>Press the F key</strong></p></div>
        <div style='float: right;'><img src='images/orange.png'></img>
        <p class='small'><strong>Press the J key</strong></p></div>
        </div>
        <p>Press any key to begin.</p>
      "," ","","",""
"","","","","","html-keyboard-response","3","2.0.0","70661","null","<div style=""font-size:60px;"">+</div>","null","fixation","",""
"","","","","","image-keyboard-response","4","2.0.0","71207","540","images/blue.png","f","response","f","true"
"","","","","","html-keyboard-response","5","2.0.0","72720","null","<div style=""font-size:60px;"">+</div>","null","fixation","",""
"","","","","","image-keyboard-response","6","2.0.0","73143","421","images/orange.png","j","response","j","true"
"","","","","","html-keyboard-response","7","2.0.0","74907","null","<div style=""font-size:60px;"">+</div>","null","fixation","",""
"","","","","","image-keyboard-response","8","2.0.0","75198","289","images/blue.png","f","response","f","true"
"","","","","","html-keyboard-response","9","2.0.0","75951","null","<div style=""font-size:60px;"">+</div>","null","fixation","",""
"","","","","","image-keyboard-response","10","2.0.0","76271","318","images/orange.png","f","response","j","false"
"","","","","","html-keyboard-response","11","2.0.0","77276","null","<div style=""font-size:60px;"">+</div>","null","fixation","",""
"","","","","","image-keyboard-response","12","2.0.0","77647","368","images/blue.png","f","response","f","true"
"","","","","","html-keyboard-response","13","2.0.0","78912","null","<div style=""font-size:60px;"">+</div>","null","fixation","",""
"","","","","","image-keyboard-response","14","2.0.0","79167","253","images/orange.png","j","response","j","true"
"","","","","","html-keyboard-response","15","2.0.0","79924","null","<div style=""font-size:60px;"">+</div>","null","fixation","",""
"","","","","","image-keyboard-response","16","2.0.0","80295","369","images/blue.png","f","response","f","true"
"","","","","","html-keyboard-response","17","2.0.0","80560","null","<div style=""font-size:60px;"">+</div>","null","fixation","",""
"","","","","","image-keyboard-response","18","2.0.0","80983","420","images/orange.png","j","response","j","true"
"","","","","","html-keyboard-response","19","2.0.0","82247","null","<div style=""font-size:60px;"">+</div>","null","fixation","",""
"","","","","","image-keyboard-response","20","2.0.0","82679","430","images/blue.png","f","response","f","true"
"","","","","","html-keyboard-response","21","2.0.0","84444","null","<div style=""font-size:60px;"">+</div>","null","fixation","",""
"","","","","","image-keyboard-response","22","2.0.0","84799","354","images/orange.png","j","response","j","true"
"","","","","","html-keyboard-response","23","2.0.0","85313","null","<div style=""font-size:60px;"">+</div>","null","fixation","",""
"","","","","","image-keyboard-response","24","2.0.0","85719","404","images/orange.png","j","response","j","true"
"","","","","","html-keyboard-response","25","2.0.0","87734","null","<div style=""font-size:60px;"">+</div>","null","fixation","",""
"","","","","","image-keyboard-response","26","2.0.0","88031","295","images/blue.png","f","response","f","true"
"","","","","","html-keyboard-response","27","2.0.0","89783","null","<div style=""font-size:60px;"">+</div>","null","fixation","",""
"","","","","","image-keyboard-response","28","2.0.0","90197","406","images/blue.png","f","response","f","true"
"","","","","","html-keyboard-response","29","2.0.0","91212","null","<div style=""font-size:60px;"">+</div>","null","fixation","",""
"","","","","","image-keyboard-response","30","2.0.0","91727","514","images/orange.png","j","response","j","true"
"","","","","","html-keyboard-response","31","2.0.0","92478","null","<div style=""font-size:60px;"">+</div>","null","fixation","",""
"","","","","","image-keyboard-response","32","2.0.0","92823","344","images/blue.png","f","response","f","true"
"","","","","","html-keyboard-response","33","2.0.0","93575","null","<div style=""font-size:60px;"">+</div>","null","fixation","",""
"","","","","","image-keyboard-response","34","2.0.0","93967","390","images/orange.png","j","response","j","true"
"","","","","","html-keyboard-response","35","2.0.0","94732","null","<div style=""font-size:60px;"">+</div>","null","fixation","",""
"","","","","","image-keyboard-response","36","2.0.0","95159","424","images/orange.png","j","response","j","true"
"","","","","","html-keyboard-response","37","2.0.0","95412","null","<div style=""font-size:60px;"">+</div>","null","fixation","",""
"","","","","","image-keyboard-response","38","2.0.0","95895","481","images/blue.png","f","response","f","true"
"","","","","","html-keyboard-response","39","2.0.0","97661","null","<div style=""font-size:60px;"">+</div>","null","fixation","",""
"","","","","","image-keyboard-response","40","2.0.0","98087","424","images/blue.png","f","response","f","true"
"","","","","","html-keyboard-response","41","2.0.0","99091","null","<div style=""font-size:60px;"">+</div>","null","fixation","",""
"","","","","","image-keyboard-response","42","2.0.0","99575","481","images/orange.png","j","response","j","true"
"","","","","","html-keyboard-response","43","2.0.0","101581","null","<div style=""font-size:60px;"">+</div>","null","fixation","",""
"","","","","","image-keyboard-response","44","2.0.0","101983","400","images/blue.png","f","response","f","true"
"","","","","","html-keyboard-response","45","2.0.0","103494","null","<div style=""font-size:60px;"">+</div>","null","fixation","",""
"","","","","","image-keyboard-response","46","2.0.0","103903","407","images/orange.png","j","response","j","true"
"","","","","","html-keyboard-response","47","2.0.0","104157","null","<div style=""font-size:60px;"">+</div>","null","fixation","",""
"","","","","","image-keyboard-response","48","2.0.0","104655","495","images/blue.png","f","response","f","true"
"","","","","","html-keyboard-response","49","2.0.0","106163","null","<div style=""font-size:60px;"">+</div>","null","fixation","",""
"","","","","","image-keyboard-response","50","2.0.0","106445","281","images/orange.png","j","response","j","true"
"","","","","","html-keyboard-response","51","2.0.0","106704","null","<div style=""font-size:60px;"">+</div>","null","fixation","",""
"","","","","","image-keyboard-response","52","2.0.0","107149","444","images/blue.png","f","response","f","true"
"","","","","","html-keyboard-response","53","2.0.0","109164","null","<div style=""font-size:60px;"">+</div>","null","fixation","",""
"","","","","","image-keyboard-response","54","2.0.0","109549","384","images/orange.png","j","response","j","true"
"","","","","","html-keyboard-response","55","2.0.0","111308","null","<div style=""font-size:60px;"">+</div>","null","fixation","",""
"","","","","","image-keyboard-response","56","2.0.0","111741","433","images/orange.png","j","response","j","true"
"","","","","","html-keyboard-response","57","2.0.0","113244","null","<div style=""font-size:60px;"">+</div>","null","fixation","",""
"","","","","","image-keyboard-response","58","2.0.0","113598","352","images/blue.png","f","response","f","true"
"","","","","","html-keyboard-response","59","2.0.0","115610","null","<div style=""font-size:60px;"">+</div>","null","fixation","",""
"","","","","","image-keyboard-response","60","2.0.0","116029","418","images/blue.png","f","response","f","true"
"","","","","","html-keyboard-response","61","2.0.0","117785","null","<div style=""font-size:60px;"">+</div>","null","fixation","",""
"","","","","","image-keyboard-response","62","2.0.0","118071","285","images/orange.png","j","response","j","true"
"","","","","","html-keyboard-response","63","2.0.0","120076","null","<div style=""font-size:60px;"">+</div>","null","fixation","",""
"","","","","","image-keyboard-response","64","2.0.0","120381","305","images/orange.png","j","response","j","true"
"","","","","","html-keyboard-response","65","2.0.0","122139","null","<div style=""font-size:60px;"">+</div>","null","fixation","",""
"","","","","","image-keyboard-response","66","2.0.0","122518","378","images/blue.png","f","response","f","true"
"","","","","","html-keyboard-response","67","2.0.0","124282","null","<div style=""font-size:60px;"">+</div>","null","fixation","",""
"","","","","","image-keyboard-response","68","2.0.0","124574","291","images/orange.png","j","response","j","true"
"","","","","","html-keyboard-response","69","2.0.0","126577","null","<div style=""font-size:60px;"">+</div>","null","fixation","",""
"","","","","","image-keyboard-response","70","2.0.0","126893","315","images/blue.png","f","response","f","true"
"","","","","","html-keyboard-response","71","2.0.0","127395","null","<div style=""font-size:60px;"">+</div>","null","fixation","",""
"","","","","","image-keyboard-response","72","2.0.0","127957","561","images/orange.png","j","response","j","true"
"","","","","","html-keyboard-response","73","2.0.0","128965","null","<div style=""font-size:60px;"">+</div>","null","fixation","",""
"","","","","","image-keyboard-response","74","2.0.0","129294","327","images/blue.png","f","response","f","true"
"","","","","","html-keyboard-response","75","2.0.0","130796","null","<div style=""font-size:60px;"">+</div>","null","fixation","",""
"","","","","","image-keyboard-response","76","2.0.0","131077","280","images/orange.png","j","response","j","true"
"","","","","","html-keyboard-response","77","2.0.0","132342","null","<div style=""font-size:60px;"">+</div>","null","fixation","",""
"","","","","","image-keyboard-response","78","2.0.0","132829","486","images/blue.png","f","response","f","true"
"","","","","","html-keyboard-response","79","2.0.0","133583","null","<div style=""font-size:60px;"">+</div>","null","fixation","",""
"","","","","","image-keyboard-response","80","2.0.0","134085","502","images/blue.png","f","response","f","true"
"","","","","","html-keyboard-response","81","2.0.0","134842","null","<div style=""font-size:60px;"">+</div>","null","fixation","",""
"","","","","","image-keyboard-response","82","2.0.0","135326","482","images/orange.png","j","response","j","true"
"","","","","","html-keyboard-response","83","2.0.0","137090","null","<div style=""font-size:60px;"">+</div>","null","fixation","",""
"","","","","","image-keyboard-response","84","2.0.0","137357","266","images/orange.png","j","response","j","true"
"","","","","","html-keyboard-response","85","2.0.0","137871","null","<div style=""font-size:60px;"">+</div>","null","fixation","",""
"","","","","","image-keyboard-response","86","2.0.0","138277","405","images/blue.png","f","response","f","true"
"","","","","","html-keyboard-response","87","2.0.0","139292","null","<div style=""font-size:60px;"">+</div>","null","fixation","",""
"","","","","","image-keyboard-response","88","2.0.0","139733","441","images/blue.png","f","response","f","true"
"","","","","","html-keyboard-response","89","2.0.0","139992","null","<div style=""font-size:60px;"">+</div>","null","fixation","",""
"","","","","","image-keyboard-response","90","2.0.0","140461","469","images/orange.png","j","response","j","true"
"","","","","","html-keyboard-response","91","2.0.0","140725","null","<div style=""font-size:60px;"">+</div>","null","fixation","",""
"","","","","","image-keyboard-response","92","2.0.0","141173","448","images/orange.png","j","response","j","true"
"","","","","","html-keyboard-response","93","2.0.0","142690","null","<div style=""font-size:60px;"">+</div>","null","fixation","",""
"","","","","","image-keyboard-response","94","2.0.0","142966","275","images/blue.png","f","response","f","true"
"","","","","","html-keyboard-response","95","2.0.0","143981","null","<div style=""font-size:60px;"">+</div>","null","fixation","",""
"","","","","","image-keyboard-response","96","2.0.0","144486","503","images/orange.png","j","response","j","true"
"","","","","","html-keyboard-response","97","2.0.0","145996","null","<div style=""font-size:60px;"">+</div>","null","fixation","",""
"","","","","","image-keyboard-response","98","2.0.0","146383","386","images/blue.png","f","response","f","true"
"","","","","","html-keyboard-response","99","2.0.0","147148","null","<div style=""font-size:60px;"">+</div>","null","fixation","",""
"","","","","","image-keyboard-response","100","2.0.0","147533","384","images/blue.png","f","response","f","true"
"","","","","","html-keyboard-response","101","2.0.0","149540","null","<div style=""font-size:60px;"">+</div>","null","fixation","",""
"","","","","","image-keyboard-response","102","2.0.0","149823","282","images/orange.png","j","response","j","true"
"","","","","","html-keyboard-response","103","2.0.0","164846","15020","<p>You responded correctly on 98% of the trials.</p>
          <p>Your average response time was 394ms.</p>
          <p>Press any key to complete the experiment. Thank you!</p>"," ","","",""
