"success","timeout","failed_images","failed_audio","failed_video","trial_type","trial_index","plugin_version","time_elapsed","rt","stimulus","response","task","correct_response","correct"
"true","false","[]","[]","[]","preload","0","2.0.0","66","","","","","",""
"","","","","","html-keyboard-response","1","2.0.0","3395","3327","Welcome to the experiment. Press any key to begin.","Enter","","",""
"","","","","","html-keyboard-response","2","2.0.0","15705","12307","
        <p>In this experiment, a circle will appear in the center 
        of the screen.</p><p>If the circle is <strong>blue</strong>, 
        press the letter F on the keyboard as fast as you can.</p>
        <p>If the circle is <strong>orange</strong>, press the letter J 
        as fast as you can.</p>
        <div style='width: 700px;'>
        <div style='float: left;'><img src='images/blue.png'></img>
        <p class='small'><strong>Press the F key</strong></p></div>
        <div style='float: right;'><img src='images/orange.png'></img>
        <p class='small'><strong>Press the J key</strong></p></div>
        </div>
        <p>Press any key to begin.</p>
      ","f","","",""
"","","","","","html-keyboard-response","3","2.0.0","18461","null","<div style=""font-size:60px;"">+</div>","null","fixation","",""
"","","","","","image-keyboard-response","4","2.0.0","18937","468","images/orange.png","f","response","j","false"
"","","","","","html-keyboard-response","5","2.0.0","20201","null","<div style=""font-size:60px;"">+</div>","null","fixation","",""
"","","","","","image-keyboard-response","6","2.0.0","21078","875","images/blue.png","j","response","f","false"
"","","","","","html-keyboard-response","7","2.0.0","21341","null","<div style=""font-size:60px;"">+</div>","null","fixation","",""
"","","","","","image-keyboard-response","8","2.0.0","23429","2084","images/orange.png","j","response","j","true"
"","","","","","html-keyboard-response","9","2.0.0","25184","null","<div style=""font-size:60px;"">+</div>","null","fixation","",""
"","","","","","image-keyboard-response","10","2.0.0","25521","336","images/blue.png","f","response","f","true"
"","","","","","html-keyboard-response","11","2.0.0","27030","null","<div style=""font-size:60px;"">+</div>","null","fixation","",""
"","","","","","image-keyboard-response","12","2.0.0","27492","460","images/blue.png","f","response","f","true"
"","","","","","html-keyboard-response","13","2.0.0","29508","null","<div style=""font-size:60px;"">+</div>","null","fixation","",""
"","","","","","image-keyboard-response","14","2.0.0","29813","301","images/orange.png","f","response","j","false"
"","","","","","html-keyboard-response","15","2.0.0","31072","null","<div style=""font-size:60px;"">+</div>","null","fixation","",""
"","","","","","image-keyboard-response","16","2.0.0","31725","652","images/orange.png","j","response","j","true"
"","","","","","html-keyboard-response","17","2.0.0","33234","null","<div style=""font-size:60px;"">+</div>","null","fixation","",""
"","","","","","image-keyboard-response","18","2.0.0","33525","289","images/blue.png","f","response","f","true"
"","","","","","html-keyboard-response","19","2.0.0","35536","null","<div style=""font-size:60px;"">+</div>","null","fixation","",""
"","","","","","image-keyboard-response","20","2.0.0","35916","379","images/blue.png","f","response","f","true"
"","","","","","html-keyboard-response","21","2.0.0","37421","null","<div style=""font-size:60px;"">+</div>","null","fixation","",""
"","","","","","image-keyboard-response","22","2.0.0","37671","246","images/orange.png","j","response","j","true"
"","","","","","html-keyboard-response","23","2.0.0","39183","null","<div style=""font-size:60px;"">+</div>","null","fixation","",""
"","","","","","image-keyboard-response","24","2.0.0","39451","264","images/orange.png","f","response","j","false"
"","","","","","html-keyboard-response","25","2.0.0","39965","null","<div style=""font-size:60px;"">+</div>","null","fixation","",""
"","","","","","image-keyboard-response","26","2.0.0","40527","559","images/blue.png","f","response","f","true"
"","","","","","html-keyboard-response","27","2.0.0","41531","null","<div style=""font-size:60px;"">+</div>","null","fixation","",""
"","","","","","image-keyboard-response","28","2.0.0","41932","397","images/blue.png","f","response","f","true"
"","","","","","html-keyboard-response","29","2.0.0","43447","null","<div style=""font-size:60px;"">+</div>","null","fixation","",""
"","","","","","image-keyboard-response","30","2.0.0","43903","455","images/orange.png","j","response","j","true"
"","","","","","html-keyboard-response","31","2.0.0","44415","null","<div style=""font-size:60px;"">+</div>","null","fixation","",""
"","","","","","image-keyboard-response","32","2.0.0","44863","447","images/orange.png","j","response","j","true"
"","","","","","html-keyboard-response","33","2.0.0","46630","null","<div style=""font-size:60px;"">+</div>","null","fixation","",""
"","","","","","image-keyboard-response","34","2.0.0","47116","486","images/blue.png","f","response","f","true"
"","","","","","html-keyboard-response","35","2.0.0","48621","null","<div style=""font-size:60px;"">+</div>","null","fixation","",""
"","","","","","image-keyboard-response","36","2.0.0","49094","469","images/blue.png","f","response","f","true"
"","","","","","html-keyboard-response","37","2.0.0","49603","null","<div style=""font-size:60px;"">+</div>","null","fixation","",""
"","","","","","image-keyboard-response","38","2.0.0","50040","436","images/orange.png","j","response","j","true"
"","","","","","html-keyboard-response","39","2.0.0","50800","null","<div style=""font-size:60px;"">+</div>","null","fixation","",""
"","","","","","image-keyboard-response","40","2.0.0","51103","302","images/blue.png","f","response","f","true"
"","","","","","html-keyboard-response","41","2.0.0","52867","null","<div style=""font-size:60px;"">+</div>","null","fixation","",""
"","","","","","image-keyboard-response","42","2.0.0","53324","455","images/orange.png","j","response","j","true"
"","","","","","html-keyboard-response","43","2.0.0","53827","null","<div style=""font-size:60px;"">+</div>","null","fixation","",""
"","","","","","image-keyboard-response","44","2.0.0","54172","343","images/orange.png","f","response","j","false"
"","","","","","html-keyboard-response","45","2.0.0","54929","null","<div style=""font-size:60px;"">+</div>","null","fixation","",""
"","","","","","image-keyboard-response","46","2.0.0","55486","555","images/blue.png","f","response","f","true"
"","","","","","html-keyboard-response","47","2.0.0","57492","null","<div style=""font-size:60px;"">+</div>","null","fixation","",""
"","","","","","image-keyboard-response","48","2.0.0","57922","428","images/blue.png","f","response","f","true"
"","","","","","html-keyboard-response","49","2.0.0","58180","null","<div style=""font-size:60px;"">+</div>","null","fixation","",""
"","","","","","image-keyboard-response","50","2.0.0","58609","428","images/orange.png","j","response","j","true"
"","","","","","html-keyboard-response","51","2.0.0","59123","null","<div style=""font-size:60px;"">+</div>","null","fixation","",""
"","","","","","image-keyboard-response","52","2.0.0","59382","258","images/blue.png","f","response","f","true"
"","","","","","html-keyboard-response","53","2.0.0","60399","null","<div style=""font-size:60px;"">+</div>","null","fixation","",""
"","","","","","image-keyboard-response","54","2.0.0","60810","410","images/orange.png","j","response","j","true"
"","","","","","html-keyboard-response","55","2.0.0","62571","null","<div style=""font-size:60px;"">+</div>","null","fixation","",""
"","","","","","image-keyboard-response","56","2.0.0","62864","292","images/orange.png","f","response","j","false"
"","","","","","html-keyboard-response","57","2.0.0","64868","null","<div style=""font-size:60px;"">+</div>","null","fixation","",""
"","","","","","image-keyboard-response","58","2.0.0","65376","505","images/blue.png","f","response","f","true"
"","","","","","html-keyboard-response","59","2.0.0","65891","null","<div style=""font-size:60px;"">+</div>","null","fixation","",""
"","","","","","image-keyboard-response","60","2.0.0","66397","503","images/orange.png","j","response","j","true"
"","","","","","html-keyboard-response","61","2.0.0","67154","null","<div style=""font-size:60px;"">+</div>","null","fixation","",""
"","","","","","image-keyboard-response","62","2.0.0","67672","516","images/blue.png","f","response","f","true"
"","","","","","html-keyboard-response","63","2.0.0","68689","null","<div style=""font-size:60px;"">+</div>","null","fixation","",""
"","","","","","image-keyboard-response","64","2.0.0","69120","428","images/orange.png","j","response","j","true"
"","","","","","html-keyboard-response","65","2.0.0","70624","null","<div style=""font-size:60px;"">+</div>","null","fixation","",""
"","","","","","image-keyboard-response","66","2.0.0","71125","499","images/blue.png","f","response","f","true"
"","","","","","html-keyboard-response","67","2.0.0","73136","null","<div style=""font-size:60px;"">+</div>","null","fixation","",""
"","","","","","image-keyboard-response","68","2.0.0","73413","275","images/blue.png","j","response","f","false"
"","","","","","html-keyboard-response","69","2.0.0","74925","null","<div style=""font-size:60px;"">+</div>","null","fixation","",""
"","","","","","image-keyboard-response","70","2.0.0","75402","475","images/orange.png","j","response","j","true"
"","","","","","html-keyboard-response","71","2.0.0","75670","null","<div style=""font-size:60px;"">+</div>","null","fixation","",""
"","","","","","image-keyboard-response","72","2.0.0","76240","567","images/blue.png","f","response","f","true"
"","","","","","html-keyboard-response","73","2.0.0","76492","null","<div style=""font-size:60px;"">+</div>","null","fixation","",""
"","","","","","image-keyboard-response","74","2.0.0","76839","346","images/orange.png","j","response","j","true"
"","","","","","html-keyboard-response","75","2.0.0","77855","null","<div style=""font-size:60px;"">+</div>","null","fixation","",""
"","","","","","image-keyboard-response","76","2.0.0","78289","432","images/blue.png","f","response","f","true"
"","","","","","html-keyboard-response","77","2.0.0","78539","null","<div style=""font-size:60px;"">+</div>","null","fixation","",""
"","","","","","image-keyboard-response","78","2.0.0","78878","338","images/orange.png","f","response","j","false"
"","","","","","html-keyboard-response","79","2.0.0","79138","null","<div style=""font-size:60px;"">+</div>","null","fixation","",""
"","","","","","image-keyboard-response","80","2.0.0","79583","442","images/orange.png","j","response","j","true"
"","","","","","html-keyboard-response","81","2.0.0","81340","null","<div style=""font-size:60px;"">+</div>","null","fixation","",""
"","","","","","image-keyboard-response","82","2.0.0","81807","464","images/blue.png","f","response","f","true"
"","","","","","html-keyboard-response","83","2.0.0","82067","null","<div style=""font-size:60px;"">+</div>","null","fixation","",""
"","","","","","image-keyboard-response","84","2.0.0","82616","546","images/blue.png","f","response","f","true"
"","","","","","html-keyboard-response","85","2.0.0","84133","null","<div style=""font-size:60px;"">+</div>","null","fixation","",""
"","","","","","image-keyboard-response","86","2.0.0","84544","408","images/orange.png","j","response","j","true"
"","","","","","html-keyboard-response","87","2.0.0","85305","null","<div style=""font-size:60px;"">+</div>","null","fixation","",""
"","","","","","image-keyboard-response","88","2.0.0","85804","496","images/orange.png","j","response","j","true"
"","","","","","html-keyboard-response","89","2.0.0","87316","null","<div style=""font-size:60px;"">+</div>","null","fixation","",""
"","","","","","image-keyboard-response","90","2.0.0","87767","449","images/blue.png","f","response","f","true"
"","","","","","html-keyboard-response","91","2.0.0","89026","null","<div style=""font-size:60px;"">+</div>","null","fixation","",""
"","","","","","image-keyboard-response","92","2.0.0","89568","539","images/blue.png","f","response","f","true"
"","","","","","html-keyboard-response","93","2.0.0","89836","null","<div style=""font-size:60px;"">+</div>","null","fixation","",""
"","","","","","image-keyboard-response","94","2.0.0","90239","400","images/orange.png","j","response","j","true"
"","","","","","html-keyboard-response","95","2.0.0","90502","null","<div style=""font-size:60px;"">+</div>","null","fixation","",""
"","","","","","image-keyboard-response","96","2.0.0","90856","351","images/orange.png","f","response","j","false"
"","","","","","html-keyboard-response","97","2.0.0","92117","null","<div style=""font-size:60px;"">+</div>","null","fixation","",""
"","","","","","image-keyboard-response","98","2.0.0","92704","586","images/blue.png","f","response","f","true"
"","","","","","html-keyboard-response","99","2.0.0","93206","null","<div style=""font-size:60px;"">+</div>","null","fixation","",""
"","","","","","image-keyboard-response","100","2.0.0","93671","464","images/orange.png","j","response","j","true"
"","","","","","html-keyboard-response","101","2.0.0","93934","null","<div style=""font-size:60px;"">+</div>","null","fixation","",""
"","","","","","image-keyboard-response","102","2.0.0","94256","318","images/blue.png","f","response","f","true"
"","","","","","html-keyboard-response","103","2.0.0","99964","5706","<p>You responded correctly on 82% of the trials.</p>
          <p>Your average response time was 486ms.</p>
          <p>Press any key to complete the experiment. Thank you!</p>","Enter","","",""
