"success","timeout","failed_images","failed_audio","failed_video","trial_type","trial_index","plugin_version","time_elapsed","rt","stimulus","response","task","correct_response","correct"
"true","false","[]","[]","[]","preload","0","2.0.0","22","","","","","",""
"","","","","","html-keyboard-response","1","2.0.0","4631","4608","Welcome to the experiment. Press any key to begin."," ","","",""
"","","","","","html-keyboard-response","2","2.0.0","9968","5335","
        <p>In this experiment, a circle will appear in the center 
        of the screen.</p><p>If the circle is <strong>blue</strong>, 
        press the letter F on the keyboard as fast as you can.</p>
        <p>If the circle is <strong>orange</strong>, press the letter J 
        as fast as you can.</p>
        <div style='width: 700px;'>
        <div style='float: left;'><img src='images/blue.png'></img>
        <p class='small'><strong>Press the F key</strong></p></div>
        <div style='float: right;'><img src='images/orange.png'></img>
        <p class='small'><strong>Press the J key</strong></p></div>
        </div>
        <p>Press any key to begin.</p>
      ","f","","",""
"","","","","","html-keyboard-response","3","2.0.0","12734","null","<div style=""font-size:60px;"">+</div>","null","fixation","",""
"","","","","","image-keyboard-response","4","2.0.0","13636","900","images/orange.png","j","response","j","true"
"","","","","","html-keyboard-response","5","2.0.0","15643","null","<div style=""font-size:60px;"">+</div>","null","fixation","",""
"","","","","","image-keyboard-response","6","2.0.0","16043","398","images/blue.png","f","response","f","true"
"","","","","","html-keyboard-response","7","2.0.0","17049","null","<div style=""font-size:60px;"">+</div>","null","fixation","",""
"","","","","","image-keyboard-response","8","2.0.0","17497","445","images/blue.png","f","response","f","true"
"","","","","","html-keyboard-response","9","2.0.0","18004","null","<div style=""font-size:60px;"">+</div>","null","fixation","",""
"","","","","","image-keyboard-response","10","2.0.0","18490","483","images/orange.png","j","response","j","true"
"","","","","","html-keyboard-response","11","2.0.0","18749","null","<div style=""font-size:60px;"">+</div>","null","fixation","",""
"","","","","","image-keyboard-response","12","2.0.0","19229","478","images/blue.png","f","response","f","true"
"","","","","","html-keyboard-response","13","2.0.0","20740","null","<div style=""font-size:60px;"">+</div>","null","fixation","",""
"","","","","","image-keyboard-response","14","2.0.0","21037","296","images/orange.png","j","response","j","true"
"","","","","","html-keyboard-response","15","2.0.0","22541","null","<div style=""font-size:60px;"">+</div>","null","fixation","",""
"","","","","","image-keyboard-response","16","2.0.0","22987","445","images/orange.png","j","response","j","true"
"","","","","","html-keyboard-response","17","2.0.0","23996","null","<div style=""font-size:60px;"">+</div>","null","fixation","",""
"","","","","","image-keyboard-response","18","2.0.0","24471","473","images/blue.png","f","response","f","true"
"","","","","","html-keyboard-response","19","2.0.0","24981","null","<div style=""font-size:60px;"">+</div>","null","fixation","",""
"","","","","","image-keyboard-response","20","2.0.0","25368","386","images/orange.png","j","response","j","true"
"","","","","","html-keyboard-response","21","2.0.0","26127","null","<div style=""font-size:60px;"">+</div>","null","fixation","",""
"","","","","","image-keyboard-response","22","2.0.0","26414","285","images/blue.png","f","response","f","true"
"","","","","","html-keyboard-response","23","2.0.0","27179","null","<div style=""font-size:60px;"">+</div>","null","fixation","",""
"","","","","","image-keyboard-response","24","2.0.0","27858","678","images/blue.png","f","response","f","true"
"","","","","","html-keyboard-response","25","2.0.0","29374","null","<div style=""font-size:60px;"">+</div>","null","fixation","",""
"","","","","","image-keyboard-response","26","2.0.0","29668","292","images/orange.png","j","response","j","true"
"","","","","","html-keyboard-response","27","2.0.0","30935","null","<div style=""font-size:60px;"">+</div>","null","fixation","",""
"","","","","","image-keyboard-response","28","2.0.0","31352","415","images/orange.png","j","response","j","true"
"","","","","","html-keyboard-response","29","2.0.0","32110","null","<div style=""font-size:60px;"">+</div>","null","fixation","",""
"","","","","","image-keyboard-response","30","2.0.0","32694","582","images/blue.png","f","response","f","true"
"","","","","","html-keyboard-response","31","2.0.0","34710","null","<div style=""font-size:60px;"">+</div>","null","fixation","",""
"","","","","","image-keyboard-response","32","2.0.0","35092","381","images/orange.png","j","response","j","true"
"","","","","","html-keyboard-response","33","2.0.0","35603","null","<div style=""font-size:60px;"">+</div>","null","fixation","",""
"","","","","","image-keyboard-response","34","2.0.0","36102","497","images/blue.png","f","response","f","true"
"","","","","","html-keyboard-response","35","2.0.0","37117","null","<div style=""font-size:60px;"">+</div>","null","fixation","",""
"","","","","","image-keyboard-response","36","2.0.0","37615","496","images/orange.png","j","response","j","true"
"","","","","","html-keyboard-response","37","2.0.0","38121","null","<div style=""font-size:60px;"">+</div>","null","fixation","",""
"","","","","","image-keyboard-response","38","2.0.0","38686","564","images/blue.png","f","response","f","true"
"","","","","","html-keyboard-response","39","2.0.0","39941","null","<div style=""font-size:60px;"">+</div>","null","fixation","",""
"","","","","","image-keyboard-response","40","2.0.0","40329","386","images/blue.png","f","response","f","true"
"","","","","","html-keyboard-response","41","2.0.0","41087","null","<div style=""font-size:60px;"">+</div>","null","fixation","",""
"","","","","","image-keyboard-response","42","2.0.0","41617","528","images/orange.png","j","response","j","true"
"","","","","","html-keyboard-response","43","2.0.0","43619","null","<div style=""font-size:60px;"">+</div>","null","fixation","",""
"","","","","","image-keyboard-response","44","2.0.0","44229","608","images/blue.png","f","response","f","true"
"","","","","","html-keyboard-response","45","2.0.0","45489","null","<div style=""font-size:60px;"">+</div>","null","fixation","",""
"","","","","","image-keyboard-response","46","2.0.0","46079","588","images/orange.png","j","response","j","true"
"","","","","","html-keyboard-response","47","2.0.0","46588","null","<div style=""font-size:60px;"">+</div>","null","fixation","",""
"","","","","","image-keyboard-response","48","2.0.0","47005","415","images/orange.png","j","response","j","true"
"","","","","","html-keyboard-response","49","2.0.0","48259","null","<div style=""font-size:60px;"">+</div>","null","fixation","",""
"","","","","","image-keyboard-response","50","2.0.0","48541","280","images/blue.png","f","response","f","true"
"","","","","","html-keyboard-response","51","2.0.0","48800","null","<div style=""font-size:60px;"">+</div>","null","fixation","",""
"","","","","","image-keyboard-response","52","2.0.0","49269","467","images/orange.png","j","response","j","true"
"","","","","","html-keyboard-response","53","2.0.0","50280","null","<div style=""font-size:60px;"">+</div>","null","fixation","",""
"","","","","","image-keyboard-response","54","2.0.0","50688","406","images/blue.png","f","response","f","true"
"","","","","","html-keyboard-response","55","2.0.0","52205","null","<div style=""font-size:60px;"">+</div>","null","fixation","",""
"","","","","","image-keyboard-response","56","2.0.0","52465","259","images/orange.png","j","response","j","true"
"","","","","","html-keyboard-response","57","2.0.0","53968","null","<div style=""font-size:60px;"">+</div>","null","fixation","",""
"","","","","","image-keyboard-response","58","2.0.0","54305","335","images/blue.png","f","response","f","true"
"","","","","","html-keyboard-response","59","2.0.0","55812","null","<div style=""font-size:60px;"">+</div>","null","fixation","",""
"","","","","","image-keyboard-response","60","2.0.0","56120","307","images/blue.png","f","response","f","true"
"","","","","","html-keyboard-response","61","2.0.0","57374","null","<div style=""font-size:60px;"">+</div>","null","fixation","",""
"","","","","","image-keyboard-response","62","2.0.0","57737","361","images/orange.png","j","response","j","true"
"","","","","","html-keyboard-response","63","2.0.0","58241","null","<div style=""font-size:60px;"">+</div>","null","fixation","",""
"","","","","","image-keyboard-response","64","2.0.0","58616","374","images/orange.png","j","response","j","true"
"","","","","","html-keyboard-response","65","2.0.0","58873","null","<div style=""font-size:60px;"">+</div>","null","fixation","",""
"","","","","","image-keyboard-response","66","2.0.0","59380","505","images/blue.png","f","response","f","true"
"","","","","","html-keyboard-response","67","2.0.0","59882","null","<div style=""font-size:60px;"">+</div>","null","fixation","",""
"","","","","","image-keyboard-response","68","2.0.0","60482","599","images/orange.png","j","response","j","true"
"","","","","","html-keyboard-response","69","2.0.0","61986","null","<div style=""font-size:60px;"">+</div>","null","fixation","",""
"","","","","","image-keyboard-response","70","2.0.0","62289","302","images/blue.png","f","response","f","true"
"","","","","","html-keyboard-response","71","2.0.0","62554","null","<div style=""font-size:60px;"">+</div>","null","fixation","",""
"","","","","","image-keyboard-response","72","2.0.0","63063","507","images/orange.png","j","response","j","true"
"","","","","","html-keyboard-response","73","2.0.0","64069","null","<div style=""font-size:60px;"">+</div>","null","fixation","",""
"","","","","","image-keyboard-response","74","2.0.0","64533","462","images/blue.png","f","response","f","true"
"","","","","","html-keyboard-response","75","2.0.0","65800","null","<div style=""font-size:60px;"">+</div>","null","fixation","",""
"","","","","","image-keyboard-response","76","2.0.0","66260","459","images/blue.png","f","response","f","true"
"","","","","","html-keyboard-response","77","2.0.0","67768","null","<div style=""font-size:60px;"">+</div>","null","fixation","",""
"","","","","","image-keyboard-response","78","2.0.0","68263","493","images/orange.png","j","response","j","true"
"","","","","","html-keyboard-response","79","2.0.0","68523","null","<div style=""font-size:60px;"">+</div>","null","fixation","",""
"","","","","","image-keyboard-response","80","2.0.0","69002","476","images/blue.png","f","response","f","true"
"","","","","","html-keyboard-response","81","2.0.0","70007","null","<div style=""font-size:60px;"">+</div>","null","fixation","",""
"","","","","","image-keyboard-response","82","2.0.0","70415","406","images/orange.png","j","response","j","true"
"","","","","","html-keyboard-response","83","2.0.0","70930","null","<div style=""font-size:60px;"">+</div>","null","fixation","",""
"","","","","","image-keyboard-response","84","2.0.0","71227","296","images/orange.png","j","response","j","true"
"","","","","","html-keyboard-response","85","2.0.0","72489","null","<div style=""font-size:60px;"">+</div>","null","fixation","",""
"","","","","","image-keyboard-response","86","2.0.0","72755","263","images/blue.png","f","response","f","true"
"","","","","","html-keyboard-response","87","2.0.0","73510","null","<div style=""font-size:60px;"">+</div>","null","fixation","",""
"","","","","","image-keyboard-response","88","2.0.0","73873","362","images/orange.png","j","response","j","true"
"","","","","","html-keyboard-response","89","2.0.0","74131","null","<div style=""font-size:60px;"">+</div>","null","fixation","",""
"","","","","","image-keyboard-response","90","2.0.0","74593","460","images/blue.png","f","response","f","true"
"","","","","","html-keyboard-response","91","2.0.0","75602","null","<div style=""font-size:60px;"">+</div>","null","fixation","",""
"","","","","","image-keyboard-response","92","2.0.0","76073","469","images/blue.png","f","response","f","true"
"","","","","","html-keyboard-response","93","2.0.0","77828","null","<div style=""font-size:60px;"">+</div>","null","fixation","",""
"","","","","","image-keyboard-response","94","2.0.0","78203","373","images/orange.png","j","response","j","true"
"","","","","","html-keyboard-response","95","2.0.0","79207","null","<div style=""font-size:60px;"">+</div>","null","fixation","",""
"","","","","","image-keyboard-response","96","2.0.0","79559","350","images/orange.png","j","response","j","true"
"","","","","","html-keyboard-response","97","2.0.0","80319","null","<div style=""font-size:60px;"">+</div>","null","fixation","",""
"","","","","","image-keyboard-response","98","2.0.0","80726","405","images/blue.png","f","response","f","true"
"","","","","","html-keyboard-response","99","2.0.0","82489","null","<div style=""font-size:60px;"">+</div>","null","fixation","",""
"","","","","","image-keyboard-response","100","2.0.0","83255","764","images/blue.png","f","response","f","true"
"","","","","","html-keyboard-response","101","2.0.0","85272","null","<div style=""font-size:60px;"">+</div>","null","fixation","",""
"","","","","","image-keyboard-response","102","2.0.0","85698","425","images/orange.png","j","response","j","true"
"","","","","","html-keyboard-response","103","2.0.0","89708","4007","<p>You responded correctly on 100% of the trials.</p>
          <p>Your average response time was 444ms.</p>
          <p>Press any key to complete the experiment. Thank you!</p>"," ","","",""
