"success","timeout","failed_images","failed_audio","failed_video","trial_type","trial_index","plugin_version","time_elapsed","rt","stimulus","response","task","correct_response","correct"
"true","false","[]","[]","[]","preload","0","2.0.0","79","","","","","",""
"","","","","","html-keyboard-response","1","2.0.0","3424","3354","Welcome to the experiment. Press any key to begin.","f","","",""
"","","","","","html-keyboard-response","2","2.0.0","16700","13273","
        <p>In this experiment, a circle will appear in the center 
        of the screen.</p><p>If the circle is <strong>blue</strong>, 
        press the letter F on the keyboard as fast as you can.</p>
        <p>If the circle is <strong>orange</strong>, press the letter J 
        as fast as you can.</p>
        <div style='width: 700px;'>
        <div style='float: left;'><img src='images/blue.png'></img>
        <p class='small'><strong>Press the F key</strong></p></div>
        <div style='float: right;'><img src='images/orange.png'></img>
        <p class='small'><strong>Press the J key</strong></p></div>
        </div>
        <p>Press any key to begin.</p>
      "," ","","",""
"","","","","","html-keyboard-response","3","2.0.0","19960","null","<div style=""font-size:60px;"">+</div>","null","fixation","",""
"","","","","","image-keyboard-response","4","2.0.0","20332","366","images/blue.png","f","response","f","true"
"","","","","","html-keyboard-response","5","2.0.0","21340","null","<div style=""font-size:60px;"">+</div>","null","fixation","",""
"","","","","","image-keyboard-response","6","2.0.0","21648","304","images/orange.png","j","response","j","true"
"","","","","","html-keyboard-response","7","2.0.0","22152","null","<div style=""font-size:60px;"">+</div>","null","fixation","",""
"","","","","","image-keyboard-response","8","2.0.0","22667","511","images/orange.png","j","response","j","true"
"","","","","","html-keyboard-response","9","2.0.0","23674","null","<div style=""font-size:60px;"">+</div>","null","fixation","",""
"","","","","","image-keyboard-response","10","2.0.0","24060","384","images/blue.png","f","response","f","true"
"","","","","","html-keyboard-response","11","2.0.0","25065","null","<div style=""font-size:60px;"">+</div>","null","fixation","",""
"","","","","","image-keyboard-response","12","2.0.0","25371","304","images/orange.png","j","response","j","true"
"","","","","","html-keyboard-response","13","2.0.0","25636","null","<div style=""font-size:60px;"">+</div>","null","fixation","",""
"","","","","","image-keyboard-response","14","2.0.0","26170","533","images/blue.png","f","response","f","true"
"","","","","","html-keyboard-response","15","2.0.0","28184","null","<div style=""font-size:60px;"">+</div>","null","fixation","",""
"","","","","","image-keyboard-response","16","2.0.0","28570","384","images/orange.png","j","response","j","true"
"","","","","","html-keyboard-response","17","2.0.0","29579","null","<div style=""font-size:60px;"">+</div>","null","fixation","",""
"","","","","","image-keyboard-response","18","2.0.0","29823","242","images/blue.png","f","response","f","true"
"","","","","","html-keyboard-response","19","2.0.0","31090","null","<div style=""font-size:60px;"">+</div>","null","fixation","",""
"","","","","","image-keyboard-response","20","2.0.0","31380","289","images/blue.png","j","response","f","false"
"","","","","","html-keyboard-response","21","2.0.0","31647","null","<div style=""font-size:60px;"">+</div>","null","fixation","",""
"","","","","","image-keyboard-response","22","2.0.0","32382","733","images/orange.png","j","response","j","true"
"","","","","","html-keyboard-response","23","2.0.0","34397","null","<div style=""font-size:60px;"">+</div>","null","fixation","",""
"","","","","","image-keyboard-response","24","2.0.0","34952","552","images/blue.png","f","response","f","true"
"","","","","","html-keyboard-response","25","2.0.0","35209","null","<div style=""font-size:60px;"">+</div>","null","fixation","",""
"","","","","","image-keyboard-response","26","2.0.0","35704","493","images/orange.png","j","response","j","true"
"","","","","","html-keyboard-response","27","2.0.0","36714","null","<div style=""font-size:60px;"">+</div>","null","fixation","",""
"","","","","","image-keyboard-response","28","2.0.0","37210","495","images/blue.png","f","response","f","true"
"","","","","","html-keyboard-response","29","2.0.0","38962","null","<div style=""font-size:60px;"">+</div>","null","fixation","",""
"","","","","","image-keyboard-response","30","2.0.0","39398","434","images/orange.png","j","response","j","true"
"","","","","","html-keyboard-response","31","2.0.0","40163","null","<div style=""font-size:60px;"">+</div>","null","fixation","",""
"","","","","","image-keyboard-response","32","2.0.0","40534","368","images/orange.png","f","response","j","false"
"","","","","","html-keyboard-response","33","2.0.0","42046","null","<div style=""font-size:60px;"">+</div>","null","fixation","",""
"","","","","","image-keyboard-response","34","2.0.0","42336","289","images/blue.png","j","response","f","false"
"","","","","","html-keyboard-response","35","2.0.0","44338","null","<div style=""font-size:60px;"">+</div>","null","fixation","",""
"","","","","","image-keyboard-response","36","2.0.0","44874","534","images/orange.png","j","response","j","true"
"","","","","","html-keyboard-response","37","2.0.0","46129","null","<div style=""font-size:60px;"">+</div>","null","fixation","",""
"","","","","","image-keyboard-response","38","2.0.0","46625","494","images/blue.png","f","response","f","true"
"","","","","","html-keyboard-response","39","2.0.0","47881","null","<div style=""font-size:60px;"">+</div>","null","fixation","",""
"","","","","","image-keyboard-response","40","2.0.0","48446","562","images/blue.png","f","response","f","true"
"","","","","","html-keyboard-response","41","2.0.0","49457","null","<div style=""font-size:60px;"">+</div>","null","fixation","",""
"","","","","","image-keyboard-response","42","2.0.0","50073","613","images/orange.png","j","response","j","true"
"","","","","","html-keyboard-response","43","2.0.0","50331","null","<div style=""font-size:60px;"">+</div>","null","fixation","",""
"","","","","","image-keyboard-response","44","2.0.0","50890","557","images/orange.png","j","response","j","true"
"","","","","","html-keyboard-response","45","2.0.0","51900","null","<div style=""font-size:60px;"">+</div>","null","fixation","",""
"","","","","","image-keyboard-response","46","2.0.0","52377","476","images/blue.png","f","response","f","true"
"","","","","","html-keyboard-response","47","2.0.0","53886","null","<div style=""font-size:60px;"">+</div>","null","fixation","",""
"","","","","","image-keyboard-response","48","2.0.0","54540","651","images/orange.png","j","response","j","true"
"","","","","","html-keyboard-response","49","2.0.0","55552","null","<div style=""font-size:60px;"">+</div>","null","fixation","",""
"","","","","","image-keyboard-response","50","2.0.0","56095","541","images/blue.png","f","response","f","true"
"","","","","","html-keyboard-response","51","2.0.0","57107","null","<div style=""font-size:60px;"">+</div>","null","fixation","",""
"","","","","","image-keyboard-response","52","2.0.0","57587","479","images/blue.png","f","response","f","true"
"","","","","","html-keyboard-response","53","2.0.0","58851","null","<div style=""font-size:60px;"">+</div>","null","fixation","",""
"","","","","","image-keyboard-response","54","2.0.0","59419","565","images/orange.png","j","response","j","true"
"","","","","","html-keyboard-response","55","2.0.0","60171","null","<div style=""font-size:60px;"">+</div>","null","fixation","",""
"","","","","","image-keyboard-response","56","2.0.0","60605","432","images/orange.png","j","response","j","true"
"","","","","","html-keyboard-response","57","2.0.0","61876","null","<div style=""font-size:60px;"">+</div>","null","fixation","",""
"","","","","","image-keyboard-response","58","2.0.0","62311","432","images/blue.png","f","response","f","true"
"","","","","","html-keyboard-response","59","2.0.0","62577","null","<div style=""font-size:60px;"">+</div>","null","fixation","",""
"","","","","","image-keyboard-response","60","2.0.0","63168","588","images/blue.png","f","response","f","true"
"","","","","","html-keyboard-response","61","2.0.0","65171","null","<div style=""font-size:60px;"">+</div>","null","fixation","",""
"","","","","","image-keyboard-response","62","2.0.0","65706","533","images/orange.png","j","response","j","true"
"","","","","","html-keyboard-response","63","2.0.0","66471","null","<div style=""font-size:60px;"">+</div>","null","fixation","",""
"","","","","","image-keyboard-response","64","2.0.0","67016","543","images/orange.png","j","response","j","true"
"","","","","","html-keyboard-response","65","2.0.0","68027","null","<div style=""font-size:60px;"">+</div>","null","fixation","",""
"","","","","","image-keyboard-response","66","2.0.0","68699","670","images/blue.png","f","response","f","true"
"","","","","","html-keyboard-response","67","2.0.0","69202","null","<div style=""font-size:60px;"">+</div>","null","fixation","",""
"","","","","","image-keyboard-response","68","2.0.0","70062","858","images/orange.png","j","response","j","true"
"","","","","","html-keyboard-response","69","2.0.0","70319","null","<div style=""font-size:60px;"">+</div>","null","fixation","",""
"","","","","","image-keyboard-response","70","2.0.0","71024","704","images/blue.png","f","response","f","true"
"","","","","","html-keyboard-response","71","2.0.0","72539","null","<div style=""font-size:60px;"">+</div>","null","fixation","",""
"","","","","","image-keyboard-response","72","2.0.0","72980","438","images/orange.png","j","response","j","true"
"","","","","","html-keyboard-response","73","2.0.0","74487","null","<div style=""font-size:60px;"">+</div>","null","fixation","",""
"","","","","","image-keyboard-response","74","2.0.0","74987","498","images/blue.png","f","response","f","true"
"","","","","","html-keyboard-response","75","2.0.0","75991","null","<div style=""font-size:60px;"">+</div>","null","fixation","",""
"","","","","","image-keyboard-response","76","2.0.0","76400","406","images/orange.png","j","response","j","true"
"","","","","","html-keyboard-response","77","2.0.0","78167","null","<div style=""font-size:60px;"">+</div>","null","fixation","",""
"","","","","","image-keyboard-response","78","2.0.0","78632","462","images/blue.png","f","response","f","true"
"","","","","","html-keyboard-response","79","2.0.0","80148","null","<div style=""font-size:60px;"">+</div>","null","fixation","",""
"","","","","","image-keyboard-response","80","2.0.0","80659","509","images/orange.png","j","response","j","true"
"","","","","","html-keyboard-response","81","2.0.0","80924","null","<div style=""font-size:60px;"">+</div>","null","fixation","",""
"","","","","","image-keyboard-response","82","2.0.0","81521","595","images/blue.png","f","response","f","true"
"","","","","","html-keyboard-response","83","2.0.0","82782","null","<div style=""font-size:60px;"">+</div>","null","fixation","",""
"","","","","","image-keyboard-response","84","2.0.0","83346","562","images/orange.png","j","response","j","true"
"","","","","","html-keyboard-response","85","2.0.0","85104","null","<div style=""font-size:60px;"">+</div>","null","fixation","",""
"","","","","","image-keyboard-response","86","2.0.0","85625","519","images/blue.png","f","response","f","true"
"","","","","","html-keyboard-response","87","2.0.0","87130","null","<div style=""font-size:60px;"">+</div>","null","fixation","",""
"","","","","","image-keyboard-response","88","2.0.0","87421","289","images/blue.png","j","response","f","false"
"","","","","","html-keyboard-response","89","2.0.0","88179","null","<div style=""font-size:60px;"">+</div>","null","fixation","",""
"","","","","","image-keyboard-response","90","2.0.0","88628","448","images/orange.png","j","response","j","true"
"","","","","","html-keyboard-response","91","2.0.0","90383","null","<div style=""font-size:60px;"">+</div>","null","fixation","",""
"","","","","","image-keyboard-response","92","2.0.0","90974","589","images/orange.png","j","response","j","true"
"","","","","","html-keyboard-response","93","2.0.0","91478","null","<div style=""font-size:60px;"">+</div>","null","fixation","",""
"","","","","","image-keyboard-response","94","2.0.0","92044","564","images/blue.png","f","response","f","true"
"","","","","","html-keyboard-response","95","2.0.0","92305","null","<div style=""font-size:60px;"">+</div>","null","fixation","",""
"","","","","","image-keyboard-response","96","2.0.0","92866","560","images/blue.png","f","response","f","true"
"","","","","","html-keyboard-response","97","2.0.0","94379","null","<div style=""font-size:60px;"">+</div>","null","fixation","",""
"","","","","","image-keyboard-response","98","2.0.0","94798","417","images/orange.png","j","response","j","true"
"","","","","","html-keyboard-response","99","2.0.0","96560","null","<div style=""font-size:60px;"">+</div>","null","fixation","",""
"","","","","","image-keyboard-response","100","2.0.0","97067","505","images/blue.png","f","response","f","true"
"","","","","","html-keyboard-response","101","2.0.0","98069","null","<div style=""font-size:60px;"">+</div>","null","fixation","",""
"","","","","","image-keyboard-response","102","2.0.0","98646","575","images/orange.png","j","response","j","true"
"","","","","","html-keyboard-response","103","2.0.0","113590","14940","<p>You responded correctly on 92% of the trials.</p>
          <p>Your average response time was 513ms.</p>
          <p>Press any key to complete the experiment. Thank you!</p>"," ","","",""
